,T,ax,ay,az,gx,gy,gz
0,4273602,0.831674,0.011834,-0.484096,18.865,-16.59,-15.155
1,4273757,0.903532,0.002562,-0.539362,4.515,-15.4875,-136.5875
2,4273855,0.964776,0.010248,-0.549244,-80.1325,32.6375,-272.23
3,4273952,0.9356180000000001,-0.00061,-0.5200861,18.4975,-100.3275,-88.8475
4,4274050,0.9084121,0.0008540001,-0.525576,5.005,-32.2,-10.7275
5,4274148,0.889258,-0.004026,-0.542412,5.81,-31.29,-5.775
6,4274246,0.873764,-0.0035380000000000003,-0.5663239999999999,7.8925,-34.195,-5.7925
7,4274344,0.870226,0.014152000000000001,-0.61,10.6925,-37.2225,-5.9325
8,4274442,0.8757159999999999,-0.035502,-0.628666,17.8675,-41.3525,-6.51
9,4274540,0.8877940000000001,-0.032818,-0.680028,17.78,-45.15,-7.49
10,4274638,0.89426,-0.033184,-0.68503,15.47,-51.1525,-8.295
11,4274736,0.898652,-0.02745,-0.668072,15.19,-61.6875,-8.5925
12,4274833,0.8931620000000001,-0.021472,-0.608658,22.785,-80.1325,-7.7525
13,4274931,0.856562,0.003172,-0.527162,32.06,-103.4425,-5.4075
14,4275029,0.946842,0.298168,-0.467992,46.585,-121.765,-4.48
15,4275127,0.70638,-0.080764,-0.292434,79.94,-132.1775,-8.715
16,4275225,0.7068681,-0.10504200000000001,0.07832401,52.2725,-112.0175,-8.925
17,4275323,0.7250460999999999,-0.044652,-0.30292600000000003,4.62,-42.21,-3.605
18,4275421,0.8015399999999999,-0.056729999999999996,-0.598654,-5.6175,4.5675,-2.345
19,4275519,0.831674,-0.05856,-0.676612,-1.5925,6.1425,-3.5875
20,4275617,0.8042239999999999,-0.057584,-0.647942,0.8925,-5.3375,-3.78
21,4275714,0.787266,-0.05209400000000001,-0.60939,0.42,-12.32,-3.2025
22,4275812,0.7999539999999999,-0.049532,-0.596458,-1.3825,-12.39,-2.38
23,4275910,0.808738,-0.047214,-0.599386,-3.0975,-11.3925,-1.855
24,4276008,0.801906,-0.047092,-0.6009720000000001,-4.515,-12.5475,-1.1025
25,4276106,0.7926340000000001,-0.048434,-0.596214,-5.3375,-14.8225,-0.63
26,4276204,0.7931220999999999,-0.04819,-0.587796,-5.6175,-16.2925,-0.385
27,4276302,0.795562,-0.045384,-0.580842,-5.5125,-16.0475,-0.385
28,4276400,0.7929999999999999,-0.0427,-0.578158,-5.1625,-14.175,-0.35
29,4276498,0.7929999999999999,-0.038918,-0.57889,-5.2325,-12.3025,-0.385
30,4276595,0.791048,-0.036112,-0.586088,-5.3725,-11.0075,-0.3325
31,4276693,0.790194,-0.034282,-0.593286,-5.5825,-10.3425,-0.4025
32,4276791,0.7922680000000001,-0.035258,-0.599874,-5.88,-10.3075,-0.42
33,4276889,0.794342,-0.03599,-0.60512,-6.23,-10.64,-0.385
34,4276987,0.79422,-0.037332,-0.6052420000000001,-6.4225,-11.165,-0.3675
35,4277085,0.7931220999999999,-0.037942000000000004,-0.604632,-6.545,-11.8125,-0.2275
36,4277183,0.790926,-0.036356,-0.601338,-6.5625,-12.4425,-0.07
37,4277281,0.78751,-0.035868000000000004,-0.594384,-6.4925,-12.6875,-0.105
38,4277379,0.784582,-0.035624,-0.5914560000000001,-6.685,-12.46,-0.035
39,4277476,0.782508,-0.033428,-0.5888939999999999,-6.9125,-11.795,0.0525
40,4277574,0.7795801,-0.03416,-0.5893821,-7.07,-10.9375,-0.07
41,4277672,0.779092,-0.03355,-0.5934081,-7.2275,-10.22,-0.105
42,4277770,0.7793359999999999,-0.032574,-0.593896,-7.3325,-9.94,-0.2275
43,4277868,0.7795801,-0.031232,-0.59902,-7.385,-9.66,-0.14
44,4277966,0.778482,-0.031232,-0.602436,-7.2625,-9.45,-0.21
45,4278064,0.780434,-0.032330000000000005,-0.6028020000000001,-7.175,-9.24,-0.2975
46,4278162,0.779946,-0.031232,-0.6037779999999999,-7.1225,-9.24,-0.3325
47,4278260,0.7808001,-0.029524,-0.6037779999999999,-7.245,-9.1175,-0.3325
48,4278357,0.780068,-0.032818,-0.60512,-7.07,-9.345,-0.0525
49,4278455,0.777628,-0.032695999999999996,-0.6039,-6.7375,-9.4675,-0.1575
50,4278553,0.776408,-0.031354,-0.60268,-6.6325,-8.75,-0.3675
51,4278651,0.7787261,-0.030378,-0.6076819999999999,-6.615,-8.155,-0.595
52,4278749,0.773602,-0.031110000000000002,-0.607804,-6.2475,-8.0325,-0.9275
53,4278847,0.77775,-0.027327999999999998,-0.609146,-5.95,-7.2275,-1.225
54,4278945,0.780678,-0.026474,-0.61305,-5.495,-6.825,-1.505
55,4279043,0.781166,-0.027083999999999997,-0.609268,-5.11,-7.0175,-1.54
56,4279141,0.780556,-0.026718000000000002,-0.61122,-5.3025,-8.19,-1.3125
57,4279239,0.7714061,-0.027938,-0.608902,-5.2325,-8.575,-1.435
58,4279336,0.774334,-0.026474,-0.607804,-4.795,-7.455,-1.785
59,4279434,0.7766521,-0.028548,-0.6103661,-4.655,-6.86,-2.03
60,4279532,0.774578,-0.027816000000000004,-0.611586,-4.4625,-6.6325,-2.2225
61,4279630,0.773602,-0.024766,-0.6131721,-3.9725,-6.2825,-2.415
62,4279728,0.7755541,-0.023546,-0.6150021,-3.5875,-5.9325,-2.6425
63,4279826,0.773602,-0.023058000000000002,-0.6141479999999999,-3.3425,-5.705,-2.765
64,4279924,0.7759199999999999,-0.025254,-0.613904,-3.15,-5.6,-2.905
65,4280022,0.77653,-0.024766,-0.6156119999999999,-2.9225,-5.635,-2.975
66,4280120,0.7762859999999999,-0.024644,-0.6158561,-2.415,-5.6175,-3.15
67,4280217,0.77531,-0.025131999999999998,-0.616222,-2.03,-5.6,-3.36
68,4280315,0.775798,-0.024766,-0.6167100000000001,-1.6975,-5.5475,-3.605
69,4280413,0.778604,-0.02501,-0.617686,-1.645,-5.6875,-3.7625
70,4280511,0.777262,-0.023912,-0.6168319999999999,-1.4875,-5.74,-3.9375
71,4280609,0.7779941,-0.024278,-0.618418,-1.435,-5.46,-4.13
72,4280707,0.777872,-0.024278,-0.621468,-1.295,-5.215,-4.3925
73,4280805,0.779092,-0.023790000000000002,-0.62159,-1.12,-5.0575,-4.69
74,4280903,0.778482,-0.024522,-0.619028,-0.91,-5.1625,-4.9875
75,4281001,0.774456,-0.023790000000000002,-0.617564,-0.8400001,-5.4075,-5.1275
76,4281099,0.776408,-0.025986000000000002,-0.616222,-0.5425,-5.425,-5.39
77,4281196,0.77653,-0.024644,-0.6150021,-0.3675,-5.495,-5.425
78,4281294,0.774578,-0.025498,-0.61427,-0.3325,-5.355,-5.495
79,4281392,0.776896,-0.02501,-0.6156119999999999,-0.1575,-5.005,-5.6875
80,4281490,0.7812880999999999,-0.025131999999999998,-0.618052,0.105,-5.215,-5.7225
81,4281588,0.7755541,-0.023058000000000002,-0.6167100000000001,0.3325,-5.39,-5.6875
82,4281686,0.776408,-0.022813999999999997,-0.6178081,0.7,-5.0925,-5.985
83,4281784,0.77775,-0.021594,-0.616954,0.945,-4.97,-6.23
84,4281882,0.777628,-0.022203999999999998,-0.613904,1.1025,-5.145,-6.405
85,4281980,0.778482,-0.022203999999999998,-0.613416,1.2425,-5.32,-6.615
86,4282077,0.778482,-0.020374,-0.614392,1.54,-5.3375,-6.8075
87,4282175,0.779946,-0.020008,-0.6140260000000001,1.785,-5.32,-7.035
88,4282273,0.780922,-0.019886,-0.613904,2.17,-5.11,-7.1925
89,4282371,0.780678,-0.018422,-0.612196,2.45,-4.8825,-7.455
90,4282469,0.7793359999999999,-0.0183,-0.61427,2.94,-4.655,-7.525
91,4282567,0.7782380999999999,-0.017324000000000003,-0.6131721,3.4475,-4.4275,-7.7525
92,4282665,0.777262,-0.016225999999999997,-0.61427,4.13,-4.06,-8.015
93,4282763,0.774822,-0.015738,-0.615978,4.7425,-3.9025,-8.295
94,4282861,0.776042,-0.016836,-0.61427,5.2325,-4.06,-8.5575
95,4282959,0.776774,-0.017812,-0.6137819999999999,5.6,-4.1475,-8.785
96,4283057,0.77653,-0.019764,-0.613294,5.95,-4.0775,-9.1875
97,4283154,0.777018,-0.021472,-0.612196,6.1775,-4.0425,-9.4325
98,4283252,0.7787261,-0.02257,-0.611342,6.2475,-4.0425,-9.7825
99,4283350,0.780922,-0.021838,-0.609634,6.51,-4.095,-9.9925
100,4283448,0.779702,-0.02257,-0.609024,6.5975,-4.06,-10.045
101,4283546,0.7808001,-0.020984,-0.6097560000000001,6.6325,-4.095,-10.2375
102,4283644,0.781898,-0.022692,-0.607804,6.86,-4.0425,-10.36
103,4283742,0.7834840000000001,-0.02501,-0.607316,6.895,-4.095,-10.395
104,4283840,0.783728,-0.027206,-0.6062181,6.755,-4.2175,-10.3775
105,4283938,0.785192,-0.029524,-0.604876,6.79,-4.305,-10.2725
106,4284035,0.786656,-0.0305,-0.606096,6.755,-4.3575,-10.2725
107,4284133,0.787144,-0.032330000000000005,-0.606096,6.685,-4.4625,-10.1325
108,4284231,0.787998,-0.033916,-0.6062181,6.72,-4.41,-10.22
109,4284329,0.788608,-0.034648000000000005,-0.606462,6.6675,-4.62,-10.2025
110,4284427,0.7877541,-0.033306,-0.6037779999999999,6.6675,-4.655,-10.15
111,4284525,0.7882421,-0.030378,-0.605608,6.685,-4.7075,-10.01
112,4284623,0.78751,-0.025742,-0.606096,6.79,-4.62,-9.9225
113,4284721,0.7853140000000001,-0.023302,-0.60573,7.105,-4.48,-9.9575
114,4284819,0.782508,-0.021472,-0.6049981,7.5775,-4.165,-10.0975
115,4284916,0.7812880999999999,-0.020496,-0.604632,8.12,-3.955,-10.325
116,4285014,0.78141,-0.01952,-0.602436,8.5925,-4.0075,-10.6575
117,4285112,0.783118,-0.01891,-0.602558,8.82,-4.165,-10.9725
118,4285210,0.7854361,-0.016592,-0.6028020000000001,9.03,-4.48,-11.27
119,4285308,0.785558,-0.017202000000000002,-0.603168,8.995,-4.6025,-11.3925
120,4285406,0.785924,-0.01952,-0.603534,8.855,-4.76,-11.585
121,4285504,0.786778,-0.021106,-0.6029241,8.82,-4.655,-11.6025
122,4285602,0.7856801,-0.02135,-0.602436,9.03,-4.6025,-11.69
123,4285700,0.7849480999999999,-0.020984,-0.604144,9.275,-4.48,-11.795
124,4285797,0.7849480999999999,-0.020130000000000002,-0.601338,9.415,-4.5325,-12.005
125,4285895,0.783972,-0.01952,-0.601216,9.6075,-4.445,-12.145
126,4285993,0.78446,-0.01952,-0.599508,9.765,-4.445,-12.215
127,4286091,0.7836061,-0.019398,-0.598654,9.835,-4.235,-12.285
128,4286189,0.7823859999999999,-0.021106,-0.595604,9.695,-4.2525,-12.425
129,4286287,0.783362,-0.020130000000000002,-0.5958479999999999,9.5725,-4.0425,-12.4775
130,4286385,0.785558,-0.019398,-0.593774,9.45,-4.0075,-12.705
131,4286483,0.788852,-0.019154,-0.593164,9.3975,-4.13,-12.845
132,4286581,0.791902,-0.018056,-0.5914560000000001,9.5725,-4.165,-12.985
133,4286678,0.792024,-0.020008,-0.592554,9.9225,-4.1475,-13.3875
134,4286776,0.793854,-0.020618,-0.5918220999999999,10.2725,-3.7975,-13.8075
135,4286874,0.7928781,-0.02135,-0.593896,10.5525,-3.57,-14.105
136,4286972,0.793976,-0.024766,-0.594018,10.5875,-3.43,-14.28
137,4287070,0.7937320999999999,-0.025254,-0.5948720000000001,10.5175,-3.4475,-14.245
138,4287168,0.79422,-0.026962,-0.592554,10.5175,-3.3775,-14.2275
139,4287266,0.7922680000000001,-0.031232,-0.5919439999999999,10.535,-3.255,-14.0525
140,4287364,0.7926340000000001,-0.031476,-0.589504,10.6925,-2.9925,-13.825
141,4287461,0.7914140000000001,-0.033306,-0.588284,10.85,-3.0275,-13.6675
142,4287559,0.7954399999999999,-0.034282,-0.5885281,10.9025,-3.08,-13.44
143,4287657,0.79605,-0.031598,-0.585356,10.675,-3.3775,-13.1075
144,4287755,0.798002,-0.032574,-0.58499,10.395,-3.3425,-12.915
145,4287853,0.7975140000000001,-0.032574,-0.584868,10.15,-3.1325,-12.775
146,4287951,0.7993439999999999,-0.03294,-0.584136,9.905,-2.905,-12.5475
147,4288049,0.801906,-0.03294,-0.583526,9.8175,-2.7825,-12.425
148,4288147,0.80215,-0.031110000000000002,-0.58499,9.6425,-2.8525,-12.46
149,4288245,0.80215,-0.0305,-0.584136,9.5375,-3.115,-12.39
150,4288342,0.8041020000000001,-0.029768,-0.586088,9.38,-3.29,-12.4075
151,4288440,0.806176,-0.030622000000000003,-0.58621,9.345,-3.395,-12.3725
152,4288538,0.8091041,-0.031964,-0.586576,9.2925,-3.64,-12.32
153,4288636,0.8086161000000001,-0.034404000000000004,-0.58499,9.275,-3.815,-12.2325
154,4288734,0.80886,-0.036356,-0.5845020000000001,9.1525,-3.955,-12.1275
155,4288832,0.80886,-0.039772,-0.5843801,8.925,-4.0425,-11.8825
156,4288930,0.807884,-0.040626,-0.584136,8.61,-4.3225,-11.6375
157,4289028,0.808982,-0.041602,-0.584014,8.26,-4.6025,-11.3225
158,4289126,0.807396,-0.043554,-0.5814520000000001,7.8225,-4.9175,-11.0425
159,4289223,0.807396,-0.04331,-0.584014,7.5075,-5.18,-10.675
160,4289321,0.8072741,-0.04331,-0.58499,7.28,-5.46,-10.2025
161,4289419,0.806176,-0.044286,-0.5842579999999999,7.0175,-5.845,-9.9225
162,4289517,0.8084939999999999,-0.042212,-0.5845020000000001,6.615,-6.195,-9.6075
163,4289615,0.8075180000000001,-0.04453,-0.5854779999999999,6.23,-6.6325,-9.2925
164,4289713,0.806176,-0.042089999999999995,-0.5857220000000001,5.8625,-6.9825,-8.925
165,4289811,0.806054,-0.041968,-0.5856,5.67,-7.14,-8.61
166,4289909,0.8062981,-0.041236,-0.5858439999999999,5.565,-7.21,-8.295
167,4290007,0.804834,-0.04148,-0.588162,5.3025,-7.35,-8.0675
168,4290104,0.803248,-0.041846,-0.588406,4.9525,-7.455,-7.8575
169,4290202,0.80215,-0.041602,-0.58804,4.585,-7.49,-7.6125
170,4290300,0.800076,-0.042212,-0.590236,4.3225,-7.63,-7.385
171,4290398,0.7986121,-0.041968,-0.592188,4.06,-7.77,-7.1925
172,4290496,0.799466,-0.042578,-0.5903579999999999,3.78,-7.9625,-7.0175
173,4290594,0.797636,-0.043066,-0.589504,3.5175,-8.085,-6.7375
174,4290692,0.796904,-0.043066,-0.59048,3.3075,-8.155,-6.545
175,4290790,0.795806,-0.043066,-0.589992,2.975,-8.19,-6.37
176,4290888,0.795074,-0.042578,-0.5917,2.695,-8.4,-6.1075
177,4290985,0.7928781,-0.042456,-0.5918220999999999,2.3625,-8.6625,-5.8975
178,4291083,0.792146,-0.0427,-0.5926760999999999,2.17,-8.8725,-5.6875
179,4291181,0.7929999999999999,-0.041724000000000004,-0.5917,1.995,-8.89,-5.5125
180,4291279,0.792512,-0.041236,-0.5917,1.785,-8.82,-5.3725
181,4291377,0.7923901,-0.041724000000000004,-0.591212,1.47,-8.7675,-5.11
182,4291475,0.7926340000000001,-0.04392,-0.592188,1.225,-8.7325,-4.8475
183,4291573,0.7911701,-0.044407999999999996,-0.59109,0.9625,-8.6625,-4.725
184,4291671,0.7890961,-0.043676,-0.5915779999999999,0.8225,-8.61,-4.55
185,4291768,0.78873,-0.043554,-0.590724,0.5775,-8.575,-4.515
186,4291866,0.78873,-0.043188,-0.5897479999999999,0.2625,-8.54,-4.375
187,4291964,0.7882421,-0.044164,-0.59231,-0.07,-8.505,-4.165
188,4292062,0.785924,-0.042944,-0.5915779999999999,-0.315,-8.3475,-3.955
189,4292160,0.78446,-0.04392,-0.592188,-0.49,-8.1375,-3.7625
190,4292258,0.784826,-0.0427,-0.592432,-0.7175,-8.085,-3.64
191,4292356,0.783728,-0.043676,-0.592066,-0.8400001,-7.91,-3.465
192,4292454,0.7829961,-0.0427,-0.592066,-1.0325,-7.7525,-3.4125
193,4292552,0.782752,-0.043554,-0.59231,-1.2775,-7.56,-3.29
194,4292650,0.7829961,-0.043554,-0.5913341,-1.54,-7.4025,-3.185
195,4292747,0.784582,-0.045018,-0.5941401,-1.89,-7.2975,-3.0625
196,4292845,0.7862901,-0.045872,-0.5914560000000001,-2.0125,-7.21,-2.9925
197,4292943,0.7854361,-0.045994,-0.591212,-2.1525,-7.0175,-2.835
198,4293041,0.7853140000000001,-0.046360000000000005,-0.5919439999999999,-2.2575,-6.6325,-2.7825
199,4293139,0.7856801,-0.045262000000000004,-0.5919439999999999,-2.31,-6.2825,-2.8
200,4293237,0.7850699999999999,-0.042578,-0.594262,-2.3625,-6.23,-2.625
201,4293335,0.784582,-0.043188,-0.594018,-2.5725,-6.1075,-2.625
202,4293433,0.7854361,-0.043432,-0.593896,-2.765,-5.985,-2.625
203,4293531,0.785802,-0.04331,-0.593286,-2.8525,-5.8275,-2.66
204,4293628,0.785924,-0.044286,-0.595116,-2.975,-5.5475,-2.625
205,4293726,0.785924,-0.043188,-0.59536,-3.0625,-5.495,-2.66
206,4293824,0.7862901,-0.043676,-0.5954821,-3.045,-5.3725,-2.6075
207,4293922,0.784826,-0.043554,-0.597312,-3.0975,-5.25,-2.6075
208,4294020,0.785558,-0.04453,-0.5954821,-3.0975,-5.2675,-2.52
209,4294118,0.78446,-0.045384,-0.5954821,-3.115,-5.11,-2.415
210,4294216,0.785192,-0.043676,-0.595116,-3.1675,-5.11,-2.345
211,4294314,0.7861680999999999,-0.041602,-0.5946279999999999,-3.185,-5.11,-2.275
212,4294411,0.7865340000000001,-0.041602,-0.595604,-3.2025,-4.97,-2.2925
213,4294509,0.787876,-0.041236,-0.596336,-3.22,-4.8125,-2.4325
214,4294607,0.787632,-0.041114,-0.595116,-3.2375,-4.6375,-2.52
215,4294705,0.7883640000000001,-0.040138,-0.5980439999999999,-3.2375,-4.5325,-2.5725
216,4294803,0.788974,-0.039772,-0.5980439999999999,-3.3075,-4.5325,-2.6425
217,4294901,0.78873,-0.040626,-0.59841,-3.2725,-4.55,-2.6775
218,4294999,0.790682,-0.039406000000000004,-0.59841,-3.08,-4.515,-2.87
219,4295097,0.7882421,-0.040260000000000004,-0.596946,-2.7825,-4.6375,-2.905
220,4295194,0.789706,-0.038796,-0.59536,-2.485,-4.6725,-3.045
221,4295292,0.789706,-0.040504000000000005,-0.596946,-2.3625,-4.7075,-3.1675
222,4295390,0.789706,-0.04148,-0.59536,-2.345,-4.8125,-3.3075
223,4295488,0.7890961,-0.04331,-0.595604,-2.555,-5.005,-3.29
224,4295586,0.7883640000000001,-0.04575,-0.5927979999999999,-2.765,-5.0925,-3.2375
225,4295684,0.789218,-0.046116000000000004,-0.59231,-2.94,-5.075,-3.115
226,4295782,0.790926,-0.045018,-0.5959701,-2.9925,-5.075,-3.0275
227,4295880,0.7914140000000001,-0.044407999999999996,-0.594384,-2.975,-5.215,-2.94
228,4295978,0.791902,-0.042456,-0.596458,-2.7825,-5.18,-2.94
229,4296075,0.7929999999999999,-0.042212,-0.595726,-2.695,-5.3375,-2.9925
230,4296173,0.7923901,-0.040626,-0.5967021,-2.6775,-5.5125,-3.0275
231,4296271,0.79361,-0.039406000000000004,-0.595726,-2.66,-5.705,-3.2025
232,4296369,0.794586,-0.038186000000000005,-0.59658,-2.5375,-5.915,-3.3425
233,4296467,0.793488,-0.039894,-0.598654,-2.5725,-6.09,-3.5525
234,4296565,0.792512,-0.040992,-0.6029241,-2.555,-6.265,-3.78
235,4296663,0.791048,-0.041114,-0.604388,-2.45,-6.545,-4.095
236,4296761,0.7929999999999999,-0.04331,-0.6076819999999999,-2.1875,-6.65,-4.235
237,4296859,0.793854,-0.046482,-0.6084141,-1.855,-6.8075,-4.305
238,4296957,0.796416,-0.046238,-0.6098779999999999,-1.5225,-7.175,-4.27
239,4297054,0.800198,-0.046116000000000004,-0.6107319999999999,-1.26,-7.7875,-4.1125
240,4297152,0.798856,-0.046116000000000004,-0.61122,-1.365,-8.505,-3.85
241,4297250,0.800442,-0.044652,-0.6108541000000001,-1.4525,-9.3275,-3.745
242,4297348,0.7977581,-0.045627999999999995,-0.6097560000000001,-1.2775,-10.115,-3.675
243,4297446,0.795074,-0.045018,-0.60878,-1.2075,-10.85,-3.605
244,4297544,0.7951961,-0.045506,-0.608902,-1.26,-11.375,-3.5175
245,4297642,0.795928,-0.047824,-0.6080479999999999,-1.0675,-12.04,-3.5875
246,4297740,0.7978801,-0.046604,-0.6082920999999999,-0.945,-12.67,-3.64
247,4297837,0.798978,-0.046238,-0.6075600999999999,-0.7875,-13.1075,-3.71
248,4297935,0.800442,-0.048556,-0.611342,-0.805,-13.4575,-3.815
249,4298033,0.8026380999999999,-0.048556,-0.612074,-0.8925,-13.8775,-3.8675
250,4298131,0.8044680999999999,-0.050874,-0.6157341,-0.9975,-14.7875,-3.9725
251,4298229,0.804346,-0.052216,-0.616588,-1.225,-16.0825,-4.0075
252,4298327,0.805078,-0.050996,-0.615124,-1.435,-17.5,-4.025
253,4298425,0.8058101,-0.051118000000000004,-0.61549,-1.6625,-18.8825,-3.99
254,4298523,0.803736,-0.052216,-0.61427,-1.75,-19.9325,-4.0075
255,4298621,0.8020281,-0.050508,-0.613294,-1.54,-20.44,-4.1125
256,4298718,0.79971,-0.049044,-0.6131721,-1.2425,-20.65,-4.3925
257,4298816,0.797148,-0.046238,-0.6117081,-0.805,-20.7375,-4.7075
258,4298914,0.794342,-0.047092,-0.6141479999999999,-0.4725,-21.0175,-5.075
259,4299012,0.792512,-0.044896,-0.615246,0.0525,-21.35,-5.53
260,4299110,0.791048,-0.04575,-0.6157341,0.525,-21.5775,-6.055
261,4299208,0.790682,-0.046848,-0.616344,0.7875,-21.98,-6.475
262,4299306,0.787998,-0.047945999999999996,-0.6161,0.8400001,-22.225,-6.7375
263,4299404,0.7856801,-0.049776,-0.616466,0.6475,-22.6275,-6.965
264,4299501,0.784338,-0.053314,-0.615368,0.4725,-23.45,-7.14
265,4299599,0.7823859999999999,-0.05368,-0.613416,0.21,-24.185,-6.965
266,4299697,0.779824,-0.055754,-0.614392,-0.1925,-24.885,-6.7725
267,4299795,0.77531,-0.057828,-0.6124400999999999,-0.595,-25.27,-6.58
268,4299893,0.772382,-0.058926,-0.613416,-0.805,-25.4975,-6.3875
269,4299991,0.768356,-0.059048,-0.613294,-0.805,-25.445,-6.335
270,4300089,0.765062,-0.05636401,-0.6140260000000001,-0.525,-25.0775,-6.44
271,4300187,0.7625,-0.053314,-0.616222,-0.1225,-24.675,-6.51
272,4300284,0.7612800999999999,-0.05063,-0.619028,0.2275,-24.3075,-6.5275
273,4300382,0.7567659999999999,-0.049532,-0.621224,0.49,-23.9575,-6.72
274,4300480,0.756034,-0.050752,-0.622322,0.8225,-23.38,-7.0175
275,4300578,0.749934,-0.05453401,-0.6228100000000001,1.1725,-22.75,-7.1225
276,4300676,0.7479819999999999,-0.060877999999999995,-0.62952,1.7325,-22.225,-7.42
277,4300774,0.748836,-0.060877999999999995,-0.641598,2.485,-22.12,-7.7525
278,4300872,0.75335,-0.05795,-0.6469659999999999,3.1325,-22.61,-8.155
279,4300970,0.752496,-0.050752,-0.6430621,3.5,-23.0475,-8.6625
280,4301067,0.749568,-0.044407999999999996,-0.634278,3.2025,-22.575,-9.135
281,4301165,0.744688,-0.040992,-0.63135,2.3275,-21.6825,-9.45
282,4301263,0.7348060000000001,-0.035136,-0.638548,1.68,-21.1225,-10.255
283,4301361,0.727364,-0.032818,-0.6409881,1.645,-21.385,-11.3225
284,4301459,0.7237041,-0.042089999999999995,-0.640622,1.1375,-21.875,-12.0575
285,4301557,0.7248020000000001,-0.054655999999999996,-0.643428,0.28,-21.49,-12.355
286,4301655,0.7259001,-0.06344,-0.649528,-0.21,-20.4575,-12.3375
287,4301753,0.72468,-0.061732,-0.6514800000000001,0.1225,-19.355,-12.355
288,4301851,0.7226060000000001,-0.055998,-0.6527,0.91,-18.2875,-12.3375
289,4301949,0.718824,-0.048312,-0.652456,1.19,-17.6225,-12.4075
290,4302046,0.7198,-0.041724000000000004,-0.6511140000000001,0.28,-17.5,-12.3375
291,4302144,0.72529,-0.042089999999999995,-0.6472100000000001,-1.8725,-17.99,-12.2675
292,4302242,0.7250460999999999,-0.045627999999999995,-0.644648,-4.585,-18.4275,-11.935
293,4302340,0.7232161,-0.05368,-0.652822,-7.385,-17.885,-11.48
294,4302438,0.7260220000000001,-0.062586,-0.6642899999999999,-9.6775,-16.765,-11.0075
295,4302536,0.73261,-0.058926,-0.674172,-11.6375,-15.0675,-10.2725
296,4302634,0.736392,-0.049044,-0.686616,-12.8975,-13.265,-9.485
297,4302732,0.735538,-0.03843,-0.6994260999999999,-13.58,-12.25,-8.2775
298,4302830,0.7299260999999999,-0.032208,-0.7055260999999999,-14.0875,-12.005,-6.9125
299,4302928,0.723826,-0.028548,-0.7067460999999999,-14.525,-12.215,-5.67
300,4303025,0.714554,-0.026474,-0.708088,-15.295,-12.53,-4.69
301,4303123,0.7044279999999999,-0.027327999999999998,-0.710284,-16.275,-13.09,-4.165
302,4303221,0.6960101,-0.021838,-0.7088201,-17.5175,-13.9125,-3.7975
303,4303319,0.6928380000000001,-0.017202000000000002,-0.7074779999999999,-18.655,-15.2425,-3.2375
304,4303417,0.6918621,-0.012444,-0.7005239999999999,-19.495,-16.7125,-2.5025
305,4303515,0.6939361,-0.005246,-0.693204,-20.1075,-17.99,-1.3125
306,4303613,0.697596,0.006344,-0.69296,-20.475,-18.445,0.07
307,4303711,0.705404,0.015128,-0.6954,-20.5275,-18.515,1.3125
308,4303809,0.71736,0.02684,-0.6993041,-20.09,-18.48,2.065
309,4303907,0.7348060000000001,0.029768,-0.709674,-19.88,-18.7775,2.52
310,4304005,0.745786,0.030378,-0.70577,-19.67,-19.355,2.87
311,4304102,0.7476161,0.035136,-0.685884,-18.935,-18.655,3.255
312,4304200,0.7340741,0.043188,-0.6709999999999999,-17.815,-16.695,3.255
313,4304298,0.7211420999999999,0.052216,-0.679296,-17.0275,-14.735,3.0275
314,4304396,0.71675,0.057218,-0.687348,-16.5725,-14.875,2.1525
315,4304494,0.71919,0.062341999999999995,-0.677588,-16.275,-16.135,1.33
316,4304592,0.723826,0.06771001,-0.66551,-16.0125,-16.6075,0.735
317,4304690,0.7269979999999999,0.07698201,-0.652212,-15.82,-15.6275,0.0
318,4304788,0.725168,0.08357,-0.650138,-15.6625,-14.3675,-0.7525
319,4304886,0.7196779999999999,0.0854,-0.648308,-15.54,-13.6325,-1.26
320,4304984,0.7108941,0.08845001,-0.641232,-15.4,-12.985,-1.365
321,4305082,0.703086,0.089426,-0.627812,-15.19,-12.0225,-1.3125
322,4305180,0.6956439999999999,0.08601,-0.6250060000000001,-14.84,-10.605,-0.8400001
323,4305277,0.694912,0.085522,-0.6224441,-14.3325,-8.9775,-0.2625
324,4305375,0.6939361,0.081252,-0.62464,-13.5625,-8.1025,0.42
325,4305473,0.700646,0.07881200000000001,-0.625494,-12.7225,-7.4375,1.2425
326,4305571,0.7060141,0.079544,-0.627568,-11.7425,-6.8775,1.82
327,4305669,0.711138,0.08003201,-0.6283,-10.78,-6.2475,2.275
328,4305767,0.713212,0.07722601,-0.625494,-10.01,-5.6175,2.8175
329,4305865,0.71797,0.07588400000000001,-0.626836,-9.6075,-4.6725,3.36
330,4305963,0.72407,0.07234600000000001,-0.625128,-9.2225,-3.9375,4.0075
331,4306061,0.725412,0.074298,-0.61793,-8.54,-3.4475,4.83
332,4306159,0.7278521,0.07490801,-0.613416,-7.805,-2.6425,5.6525
333,4306257,0.7317560000000001,0.074664,-0.6097560000000001,-7.035,-1.75,6.4575
334,4306354,0.734318,0.075762,-0.6109760000000001,-6.2825,-1.085,7.3325
335,4306452,0.737002,0.075396,-0.604876,-5.285,-0.56,8.155
336,4306550,0.7378560000000001,0.07307801,-0.6015821,-4.0775,0.1225,8.9425
337,4306648,0.7399300999999999,0.080276,-0.6007279999999999,-3.1325,0.805,9.625
338,4306746,0.74237,0.07551801,-0.5980439999999999,-2.0475,1.33,10.08
339,4306844,0.7476161,0.07442,-0.594262,-0.91,1.9425,10.465
340,4306942,0.749324,0.07515201,-0.5945060000000001,-0.0525,2.7125,10.4825
341,4307040,0.749812,0.075762,-0.59292,0.77,3.255,10.4125
342,4307138,0.749568,0.07808001,-0.5857220000000001,1.3125,3.7275,10.5175
343,4307236,0.7476161,0.08405800000000001,-0.582916,1.8375,4.2875,10.465
344,4307334,0.74725,0.085888,-0.58377,2.3975,4.445,10.36
345,4307431,0.74847,0.08405800000000001,-0.58255,3.0275,4.2525,10.325
346,4307529,0.7518859999999999,0.08405800000000001,-0.587674,3.2725,3.8325,10.08
347,4307627,0.7539600000000001,0.08503401,-0.5897479999999999,3.605,3.3425,9.8
348,4307725,0.7582300000000001,0.085888,-0.590114,3.78,3.0975,9.45
349,4307823,0.762988,0.08344800000000001,-0.590236,3.8675,3.5,9.0825
350,4307921,0.764208,0.08417999999999999,-0.5958479999999999,3.3775,3.955,8.9075
351,4308019,0.7672581,0.082106,-0.595726,2.555,4.4975,8.82
352,4308117,0.770308,0.079422,-0.589504,1.8725,4.865,8.8375
353,4308215,0.772504,0.076616,-0.583526,1.1375,4.9,8.6625
354,4308313,0.76677,0.081252,-0.586454,0.3675,4.06,8.2775
355,4308410,0.7687221,0.0854,-0.5959701,0.1225,2.4325,7.5075
356,4308508,0.780312,0.086132,-0.601826,0.35,0.9625,6.195
357,4308606,0.787144,0.098088,-0.6566041,-0.1925,0.4025,4.4275
358,4308704,0.80886,0.088328,-0.7107720000000001,-1.9075,0.385,1.5925
359,4308802,0.8552200000000001,0.042944,-0.705404,-4.4275,1.5925,-1.225
360,4308900,0.8625401,-0.0008540001,-0.69479,-7.3675,4.83,-2.3975
361,4308998,0.8544879999999999,-0.016592,-0.724314,-10.7625,8.47,-2.59
362,4309096,0.8480221,-0.0051240009999999996,-0.7579859999999999,-12.88,8.8725,-2.9225
363,4309194,0.8457040000000001,0.015493999999999999,-0.775188,-12.355,7.1925,-2.6775
364,4309292,0.8392381,0.046116000000000004,-0.8973101000000001,-12.1625,5.7925,-1.5225
365,4309389,0.90951,0.028914,-0.917684,-15.47,1.995,-0.6825
366,4309487,0.930494,-0.032818,-0.7821421,-19.18,-0.035,1.1725
367,4309585,0.8670540999999999,-0.082472,-0.697596,-19.6525,6.9825,3.9725
368,4309683,0.8020281,-0.040016,-0.740296,-21.2625,9.2225,4.2175
369,4309781,0.744566,0.002928,-0.7470060000000001,-17.15,-0.595,3.43
370,4309879,0.7101621,0.025254,-0.714554,-10.6575,-10.9725,4.305
371,4309977,0.67405,0.041358,-0.6802720999999999,-5.53,-13.8075,5.145
372,4310075,0.654042,0.052948,-0.68076,-2.6075,-9.4325,5.215
373,4310173,0.65209,0.054167999999999994,-0.705404,-0.595,-2.4675,3.885
374,4310271,0.6600201,0.033062,-0.732122,0.035,1.82,1.155
375,4310368,0.6686821,-0.007564001,-0.7556681,-0.8225,2.3275,-1.4175
376,4310466,0.674782,-0.05636401,-0.768478,-1.9075,0.3675,-3.395
377,4310564,0.6790520999999999,-0.08759601,-0.7670140000000001,-2.3975,-1.33,-4.2875
378,4310663,0.6728301,-0.09247601,-0.760914,-3.0275,-2.1175,-4.2175
379,4310760,0.6724640000000001,-0.08442401,-0.754692,-4.445,-3.29,-3.43
380,4310858,0.664412,-0.06795401,-0.7540819999999999,-6.055,-6.02,-1.8725
381,4310956,0.665266,-0.05795,-0.753228,-6.93,-9.38,-0.0875
382,4311054,0.6756361,-0.05843801,-0.7439560000000001,-6.3875,-12.005,1.225
383,4311152,0.6803941,-0.047458,-0.732122,-4.76,-12.74,2.0475
384,4311249,0.681614,-0.037454,-0.727608,-2.6425,-11.585,2.59
385,4311347,0.6882020000000001,-0.017934000000000002,-0.7291941,-0.4725,-9.9225,2.94
386,4311445,0.6939361,-0.01403,-0.732854,1.2425,-9.4675,3.43
387,4311543,0.69479,-0.026474,-0.732122,2.345,-10.815,4.3925
388,4311641,0.6913739999999999,-0.053191999999999996,-0.72468,3.395,-12.53,5.11
389,4311739,0.6897880999999999,-0.07198,-0.705282,4.2175,-13.6675,5.3725
390,4311837,0.695766,-0.08954801,-0.6893,4.7075,-13.335,5.18
391,4311935,0.7004020000000001,-0.09320801,-0.678686,4.4275,-13.3875,4.62
392,4312032,0.6928380000000001,-0.09698999999999999,-0.675758,3.9725,-14.315,4.13
393,4312130,0.690154,-0.096624,-0.6764899999999999,3.64,-16.3975,4.165
394,4312228,0.696864,-0.093696,-0.6736840000000001,3.43,-18.305,4.4275
395,4312326,0.7062579999999999,-0.09345201,-0.6733180000000001,3.22,-19.6175,4.9525
396,4312424,0.7134560999999999,-0.092964,-0.6694140000000001,2.9925,-20.4925,5.7225
397,4312522,0.7129681,-0.09625801,-0.6681941,2.835,-20.7025,6.685
398,4312620,0.71187,-0.102602,-0.66246,2.6775,-20.7025,7.6475
399,4312718,0.7093081,-0.106994,-0.656116,2.1,-20.2475,8.6275
400,4312815,0.70455,-0.1159,-0.6453800000000001,1.33,-20.0375,9.485
401,4312913,0.7034521,-0.119072,-0.6368401,0.49,-20.0025,10.29
402,4313011,0.7060141,-0.12505,-0.629764,-0.805,-20.1075,11.13
403,4313109,0.7068681,-0.129076,-0.622688,-2.6425,-20.615,11.9875
404,4313207,0.71004,-0.132126,-0.620736,-4.795,-21.1225,12.495
405,4313305,0.720166,-0.13054000000000002,-0.61305,-6.79,-21.315,12.7225
406,4313403,0.726144,-0.127246,-0.6015821,-8.6975,-21.2625,12.705
407,4313501,0.7257781,-0.12248800000000001,-0.5913341,-10.6575,-20.7375,12.5825
408,4313598,0.7248020000000001,-0.11846199999999998,-0.5757180000000001,-13.02,-20.0725,12.53
409,4313696,0.725534,-0.123098,-0.5764501,-15.96,-19.775,12.7575
410,4313794,0.723094,-0.128588,-0.58011,-19.0925,-20.3525,13.195
411,4313892,0.72285,-0.137128,-0.574986,-22.4175,-21.5425,14.0175
412,4313990,0.727486,-0.135054,-0.57157,-25.445,-21.5775,14.945
413,4314088,0.737124,-0.12761199999999998,-0.56242,-27.65,-19.8975,15.715
414,4314186,0.741638,-0.115656,-0.558638,-29.75,-17.57,16.625
415,4314284,0.742614,-0.100772,-0.5605899999999999,-31.7275,-14.9625,17.745
416,4314381,0.742492,-0.078446,-0.533872,-32.06,-11.7075,18.97
417,4314479,0.7239479999999999,-0.05209400000000001,-0.514962,-32.27,-7.7875,19.9325
418,4314577,0.709796,-0.043066,-0.517158,-32.025,-3.7625,20.1425
419,4314675,0.6925941,-0.037088,-0.525942,-30.1175,-0.9975,19.81
420,4314773,0.677588,-0.03904,-0.517768,-27.1775,1.0675,18.445
421,4314871,0.686128,-0.04514,-0.49849209999999994,-24.1325,3.4125,16.38
422,4314969,0.6974739999999999,-0.030622000000000003,-0.47079799999999994,-22.085,5.7925,14.315
423,4315067,0.7041841,0.013054,-0.44688599999999995,-22.26,8.3475,12.1625
424,4315165,0.704916,0.049776,-0.45603599999999994,-25.095,11.7075,8.8375
425,4315263,0.699182,0.05941401,-0.48617,-28.8925,14.98,5.005
426,4315360,0.6980841,0.001098,-0.64782,-32.4275,18.6375,1.365
427,4315458,0.777872,-0.07173600000000001,-0.769576,-29.3475,22.4875,-1.4
428,4315556,0.8256960999999999,-0.09711201,-0.8099581,-19.4425,26.74,-0.7
429,4315654,0.8188641,-0.09235399999999999,-0.9063379999999999,-7.245,33.88,2.1525
430,4315752,0.815204,-0.026108,-0.999302,4.2175,38.395,3.395
431,4315850,0.8224021,0.044774,-0.9888101,10.8675,36.7675,3.7275
432,4315948,0.756888,0.1159,-0.8941380999999999,12.1975,34.6675,3.92
433,4316046,0.678686,0.14713199999999999,-0.8410681000000001,8.6975,32.27,2.3275
434,4316144,0.63989,0.07222401,-0.8664440000000001,5.145,25.3925,-0.385
435,4316242,0.643184,0.00305,-0.8701040000000001,3.64,11.7075,-1.4875
436,4316339,0.6389140999999999,-0.019032,-0.87474,0.805,-3.4475,-1.4525
437,4316437,0.660142,-0.073688,-0.8927959999999999,-2.275,-11.1125,-2.38
438,4316535,0.7259001,-0.12041400000000001,-0.8976761000000001,-2.275,-8.785,-3.2025
439,4316633,0.7645741,-0.14701,-0.9024341,-1.6275,-0.14,-3.0275
440,4316731,0.765794,-0.166652,-0.902068,-0.28,6.1775,-3.955
441,4316829,0.760914,-0.158722,-0.886818,0.6475,7.8925,-5.985
442,4316927,0.7596940999999999,-0.12993,-0.870958,0.6125,6.7725,-7.6475
443,4317025,0.7556681,-0.109678,-0.862662,-0.0525,4.6725,-8.4175
444,4317123,0.739564,-0.09333,-0.84851,0.21,2.5375,-8.82
445,4317221,0.726754,-0.071492,-0.8260620000000001,1.5575,0.9625,-9.1
446,4317319,0.71614,-0.048068,-0.8076399999999999,3.01,0.0175,-9.52
447,4317416,0.7062579999999999,-0.03721,-0.7877541,4.62,-0.8225,-9.8525
448,4317514,0.693692,-0.01769,-0.767502,4.76,-2.0475,-10.115
449,4317612,0.6755140000000001,-0.006344,-0.7448100999999999,4.3575,-3.4125,-10.7975
450,4317710,0.647454,0.002684,-0.7266321,3.4125,-4.585,-11.5325
451,4317808,0.629642,0.01281,-0.7060141,1.505,-5.845,-12.1975
452,4317906,0.627446,0.019642,-0.689056,-0.315,-6.8075,-13.09
453,4318004,0.6348881,0.033794,-0.673806,-1.68,-7.595,-13.755
454,4318102,0.644648,0.030744,-0.6605081,-2.52,-7.84,-13.8075
455,4318200,0.64965,0.024278,-0.650626,-2.625,-7.7,-13.2125
456,4318298,0.652334,0.03172,-0.6525781,-2.9575,-7.875,-12.3025
457,4318395,0.657702,0.029524,-0.65087,-2.94,-9.0825,-11.69
458,4318493,0.6613621000000001,0.01647,-0.6420859999999999,-2.9575,-10.71,-11.4625
459,4318591,0.6603859999999999,0.005002,-0.6329359999999999,-3.2025,-11.865,-11.305
460,4318689,0.662338,-0.009150001,-0.629154,-3.5,-12.145,-11.41
461,4318787,0.667218,-0.014762,-0.6222,-4.0075,-12.005,-11.2525
462,4318885,0.671366,-0.011101999999999999,-0.618784,-4.1825,-12.11,-11.3225
463,4318983,0.6856399999999999,-0.007442,-0.6103661,-3.535,-12.1275,-11.375
464,4319081,0.695034,0.006954000000000001,-0.601826,-3.3075,-11.7075,-11.13
465,4319179,0.700158,0.001464,-0.5936520000000001,-2.66,-11.55,-10.64
466,4319277,0.7044279999999999,0.008174001,-0.586454,-2.1875,-11.5675,-9.52
467,4319374,0.707966,0.005612,-0.574254,-1.5575,-11.41,-8.3475
468,4319472,0.709064,0.00549,-0.568032,-0.63,-10.7625,-7.5425
469,4319570,0.707966,0.007564001,-0.5675439999999999,0.6825,-10.185,-6.93
470,4319668,0.7117479999999999,0.012078,-0.5703501,2.0475,-9.7825,-6.4575
471,4319766,0.720532,0.022448,-0.569984,3.43,-9.065,-6.37
472,4319864,0.727364,0.025131999999999998,-0.561688,5.215,-7.875,-5.8975
473,4319962,0.73505,0.040992,-0.561078,6.86,-5.915,-5.1275
474,4320060,0.7407841,0.058682000000000005,-0.5632739999999999,8.3825,-3.5875,-4.7075
475,4320158,0.7479819999999999,0.06954,-0.558638,9.8525,-2.03,-4.69
476,4320256,0.752008,0.076616,-0.551074,10.9725,-0.77,-5.0575
477,4320353,0.757376,0.07344400000000001,-0.542412,12.11,0.9975,-6.1075
478,4320451,0.7517640999999999,0.07515201,-0.5361899999999999,13.0725,3.535,-7.7525
479,4320549,0.754204,0.07027201,-0.528382,14.42,6.1075,-9.9225
480,4320647,0.7643300000000001,0.063928,-0.5188659999999999,15.3125,7.63,-12.2675
481,4320745,0.7816541,0.045384,-0.510936,15.7675,7.4025,-14.5775
482,4320843,0.7975140000000001,0.019642,-0.505446,16.1175,6.265,-16.3275
483,4320941,0.8147161,-0.004392,-0.510814,16.345,4.585,-18.165
484,4321039,0.833016,-0.014396,-0.516792,15.575,2.415,-19.7225
485,4321137,0.8524139999999999,-0.013297999999999999,-0.524356,13.475,0.8575,-21.035
486,4321234,0.8697379999999999,-0.010126000000000001,-0.544242,10.5175,0.21,-21.6825
487,4321332,0.8808401,-0.022326,-0.553636,7.7175,0.5425,-21.1925
488,4321430,0.8670540999999999,-0.020008,-0.614392,5.635,3.22,-19.9675
489,4321528,0.878034,-0.020618,-0.701012,4.4625,7.105,-19.5475
490,4321626,0.9204901,-0.061854,-0.6954,3.5875,11.27,-20.8775
491,4321724,0.9214661,-0.12261,-0.670146,3.0275,16.695,-21.07
492,4321822,0.873764,-0.12065799999999999,-0.7360260000000001,0.0175,21.84,-18.5325
493,4321919,0.8359440999999999,-0.08601,-0.791292,-4.06,21.4725,-17.15
494,4322017,0.79971,-0.037698,-0.792512,-6.7025,15.225,-17.395
495,4322115,0.756034,-0.008296000999999999,-0.8493641,-8.5925,9.485,-16.8875
496,4322213,0.777384,-0.013786000000000001,-0.8554641,-11.6725,6.0725,-16.1875
497,4322311,0.757742,-0.046482,-0.769454,-16.8,3.85,-14.805
498,4322409,0.69479,-0.08332601,-0.737246,-20.3875,5.32,-12.005
499,4322507,0.6359859999999999,-0.08003201,-0.772504,-22.96,2.0825,-9.625
500,4322605,0.580232,-0.025131999999999998,-0.7877541,-19.5475,-6.545,-9.0125
501,4322703,0.582062,0.026108,-0.7659161,-13.1775,-13.2825,-10.2375
502,4322800,0.6232981,0.07600599999999999,-0.7605481,-7.6825,-15.8375,-11.585
503,4322898,0.7126020000000001,0.09650201,-0.7732359999999999,-3.815,-15.26,-12.3375
504,4322996,0.7986121,0.08820599999999999,-0.8054439999999999,-3.465,-14.0175,-11.27
505,4323094,0.8494860999999999,0.066246,-0.8315520000000001,-5.7575,-14.315,-8.9075
506,4323192,0.8609540999999999,0.032695999999999996,-0.841922,-7.1225,-16.695,-7.8225
507,4323290,0.838506,-0.008052001,-0.8361879999999999,-5.2675,-18.7075,-8.33
508,4323388,0.8023939999999999,-0.034648000000000005,-0.824232,-2.2925,-19.495,-8.26
509,4323485,0.7664041,-0.048434,-0.813862,0.9625,-19.2675,-7.2975
510,4323583,0.749568,-0.05612,-0.7893399999999999,4.4975,-19.285,-6.09
511,4323681,0.74603,-0.071858,-0.758352,6.93,-18.97,-4.2875
512,4323779,0.743346,-0.090158,-0.732854,7.91,-19.145,-1.8725
513,4323877,0.72773,-0.11577799999999999,-0.71309,7.665,-20.3525,0.7875
514,4323975,0.703574,-0.152622,-0.690764,7.3325,-22.6625,3.3075
515,4324073,0.684664,-0.16714,-0.674172,7.6475,-24.6925,5.67
516,4324171,0.682712,-0.175314,-0.657092,8.61,-26.3025,7.77
517,4324269,0.6825899999999999,-0.17568,-0.63989,9.38,-27.65,9.7475
518,4324366,0.6825899999999999,-0.164944,-0.62769,10.1675,-28.7,11.5325
519,4324464,0.6836880999999999,-0.13944600000000001,-0.617564,9.94,-29.435,12.8625
520,4324562,0.6980841,-0.12029200000000001,-0.6145141,8.0325,-29.645,13.8075
521,4324660,0.70455,-0.1098,-0.6084141,5.4775,-29.645,14.7175
522,4324758,0.700036,-0.098332,-0.6058520000000001,2.8,-29.5925,15.4525
523,4324856,0.693692,-0.08906,-0.6075600999999999,0.98,-29.6625,15.68
524,4324954,0.680638,-0.08052000000000001,-0.6075600999999999,0.28,-29.9775,14.8925
525,4325052,0.672342,-0.07893401,-0.598654,0.175,-30.3625,13.7725
526,4325149,0.673074,-0.085522,-0.592188,0.0875,-30.765,12.705
527,4325247,0.6767340000000001,-0.091012,-0.58255,-0.1575,-31.0975,11.55
528,4325345,0.6830781,-0.102846,-0.57218,-1.19,-30.835,10.7275
529,4325443,0.6913739999999999,-0.118218,-0.5663239999999999,-3.5875,-30.0125,9.9575
530,4325541,0.6925941,-0.140178,-0.555466,-5.81,-28.9975,9.4325
531,4325639,0.6943020000000001,-0.156892,-0.55571,-7.6475,-27.65,9.1875
532,4325737,0.6944241,-0.169336,-0.5486340000000001,-9.765,-26.2325,8.855
533,4325835,0.695522,-0.17238599999999998,-0.5314321,-11.8825,-24.5875,8.7325
534,4325932,0.698816,-0.175924,-0.513742,-13.755,-21.3675,8.54
535,4326030,0.697596,-0.18178,-0.503372,-14.735,-16.8175,8.855
536,4326128,0.6897880999999999,-0.158844,-0.48251000000000005,-15.3475,-12.53,9.52
537,4326226,0.67588,-0.142862,-0.46128199999999997,-16.6775,-7.9275,9.6775
538,4326324,0.67161,-0.12053599999999999,-0.45078999999999997,-18.235,-3.15,9.8
539,4326422,0.676124,-0.082716,-0.448838,-19.7225,0.805,9.8525
540,4326520,0.689422,-0.051362,-0.433832,-20.2825,4.0775,10.0275
541,4326618,0.6977180000000001,-0.024034,-0.413336,-21.14,7.7875,9.8525
542,4326716,0.6973520000000001,-0.008052001,-0.398818,-21.6475,11.9175,8.4875
543,4326813,0.69418,-0.0064659999999999995,-0.39113200000000004,-21.1225,16.2575,5.8275
544,4326911,0.685762,-0.005368,-0.414312,-19.95,20.1775,1.9425
545,4327009,0.692472,-0.009394,-0.44249399999999994,-17.745,22.8025,-3.2375
546,4327107,0.689056,-0.016225999999999997,-0.5463161,-14.7175,24.7275,-9.0125
547,4327205,0.7108941,-0.031842,-0.752984,-9.66,27.9475,-14.35
548,4327303,0.779824,-0.032695999999999996,-0.882548,0.98,32.76,-18.5325
549,4327401,0.8160581,0.006832001,-0.969534,15.5575,40.4775,-19.6175
550,4327499,0.803492,0.09552601,-1.05713,29.155,52.3075,-18.7775
551,4327597,0.784582,0.19947,-1.047736,39.76,61.145,-18.8125
552,4327695,0.74115,0.23851,-0.9934460999999999,43.6275,62.86,-18.935
553,4327792,0.7104060000000001,0.19276,-0.9503799999999999,40.3025,55.6325,-18.3575
554,4327890,0.7183361,0.172264,-0.878034,33.985,38.605,-18.7775
555,4327988,0.6917399999999999,0.09235399999999999,-0.8679081,25.0425,18.375,-20.755
556,4328086,0.712724,-0.018178,-0.916952,19.32,2.31,-22.05
557,4328184,0.7965380999999999,-0.09540401,-0.9261021,19.985,-5.355,-21.385
558,4328282,0.8637601,-0.12041400000000001,-0.913536,21.07,-5.4075,-20.7025
559,4328380,0.902068,-0.136274,-0.8906,22.295,-1.05,-21.56
560,4328478,0.9004821,-0.146644,-0.8897459999999999,24.9725,3.7275,-24.0275
561,4328576,0.865956,-0.1464,-0.8720559999999999,27.65,4.69,-27.2825
562,4328673,0.833626,-0.13859200000000002,-0.8447280999999999,27.9475,3.6225,-30.03
563,4328771,0.805078,-0.11431400000000001,-0.803736,26.6,3.3075,-32.62
564,4328869,0.7789699999999999,-0.083814,-0.763476,26.1625,4.445,-35.4375
565,4328967,0.760182,-0.058072000000000006,-0.746396,25.9875,5.7925,-37.38
566,4329065,0.7509100000000001,-0.036356,-0.738222,25.48,5.7225,-37.695
567,4329163,0.7390760000000001,-0.01952,-0.73078,24.115,3.22,-36.645
568,4329261,0.72773,-0.00427,-0.716018,22.435,-0.7875,-35.14
569,4329359,0.709064,0.006344,-0.68625,21.2275,-4.9525,-33.8625
570,4329457,0.6893,-0.004514,-0.662338,19.3375,-8.54,-32.8125
571,4329554,0.671976,-0.015128,-0.646478,16.625,-11.48,-31.57
572,4329652,0.6695361,-0.029889999999999996,-0.6389140999999999,13.685,-13.615,-30.2225
573,4329750,0.662948,-0.03416,-0.622078,11.7075,-14.385,-28.14
574,4329848,0.658434,-0.022813999999999997,-0.604144,10.15,-13.9125,-25.83
575,4329946,0.66063,-0.02257,-0.586332,8.96,-12.4775,-24.2725
576,4330044,0.670878,-0.030866,-0.579378,8.61,-10.85,-22.855
577,4330142,0.670878,-0.028182,-0.5727901,8.155,-9.73,-20.86
578,4330240,0.662826,-0.007686,-0.571814,7.735,-10.0625,-18.97
579,4330338,0.659776,0.013054,-0.5743761,7.7,-11.515,-17.85
580,4330435,0.6694140000000001,0.022692,-0.571448,7.4725,-13.3175,-17.0625
581,4330533,0.686616,0.036478,-0.5703501,6.1075,-14.5075,-16.87
582,4330631,0.6986939999999999,0.043554,-0.5635180000000001,4.9175,-15.26,-17.3075
583,4330729,0.7138220000000001,0.038186000000000005,-0.560956,4.1475,-15.9075,-17.815
584,4330827,0.7288279999999999,0.019886,-0.562908,3.325,-16.6775,-17.92
585,4330925,0.7440781,0.008418,-0.5579061,4.2875,-17.08,-18.305
586,4331023,0.758596,0.00305,-0.538508,7.42,-16.0125,-18.76
587,4331121,0.75579,0.010614,-0.521306,11.025,-13.5975,-18.7775
588,4331219,0.739808,0.014152000000000001,-0.512034,14.1225,-10.885,-18.3925
589,4331317,0.721264,0.025863999999999998,-0.5073979999999999,15.645,-8.155,-17.0975
590,4331414,0.7129681,0.032695999999999996,-0.50203,16.1,-5.5825,-15.155
591,4331512,0.7250460999999999,0.040992,-0.496906,16.52,-3.2725,-13.3175
592,4331610,0.74237,0.052948,-0.475922,18.0425,-0.4725,-11.935
593,4331708,0.7549359999999999,0.064172,-0.45725600000000005,20.3175,3.8325,-10.78
594,4331806,0.772748,0.081862,-0.455426,22.295,8.68,-9.9925
595,4331904,0.791536,0.097722,-0.457988,23.24,12.2325,-10.2025
596,4332002,0.8182541,0.1037,-0.443592,23.17,14.0175,-11.0075
597,4332100,0.845094,0.09333,-0.427122,22.9775,14.4375,-12.04
598,4332198,0.8616860000000001,0.056974000000000004,-0.43200200000000005,23.485,12.4075,-13.475
599,4332296,0.8704700000000001,0.011590000000000001,-0.43639399999999995,23.31,8.5925,-15.0325
600,4332393,0.8875501,-0.020374,-0.44212799999999997,22.2425,4.9175,-17.2375
601,4332491,0.8976761000000001,-0.04404201,-0.458354,20.79,3.0975,-19.4775
602,4332589,0.9060940000000001,-0.051118000000000004,-0.48397399999999996,17.9025,4.3225,-21.0
603,4332687,0.9117061,-0.04867801,-0.5543680000000001,14.4025,8.5925,-21.175
604,4332785,0.904386,-0.04087,-0.7226060000000001,11.76,13.7375,-20.2125
605,4332883,0.9553821,-0.07198,-0.7823859999999999,10.605,17.4825,-20.16
606,4332981,0.9969841,-0.139202,-0.805078,8.7325,22.0325,-20.615
607,4333079,0.9646541,-0.18995399999999998,-0.8615640999999999,1.855,27.475,-17.99
608,4333177,0.8852321,-0.206058,-0.9496479999999999,-9.31,28.35,-14.805
609,4333275,0.8540000000000001,-0.156648,-0.9888101,-20.0375,19.9675,-14.7
610,4333372,0.8285021,-0.12505,-0.8260620000000001,-31.01,6.79,-14.9975
611,4333470,0.7237041,-0.190686,-0.665632,-36.2775,4.445,-11.13
612,4333568,0.6219561,-0.153232,-0.693692,-39.76,5.2675,-3.22
613,4333666,0.5543680000000001,-0.07259,-0.7366361,-41.265,-4.4275,1.8725
614,4333764,0.570716,0.002562,-0.7476161,-38.465,-17.255,2.975
615,4333862,0.66063,0.068564,-0.731146,-31.4125,-26.3025,1.3475
616,4333960,0.762134,0.11333800000000001,-0.727974,-22.2075,-28.56,-0.595
617,4334058,0.8519260000000001,0.127734,-0.7625,-17.7275,-26.915,-1.19
618,4334156,0.9076799999999999,0.108824,-0.8105680000000001,-19.775,-24.5525,-0.1225
619,4334254,0.9282981,0.05929201,-0.846558,-23.1175,-22.0675,1.05
620,4334351,0.9093880999999999,0.016225999999999997,-0.83814,-23.6075,-19.495,1.47
621,4334449,0.83936,-0.016592,-0.8271601000000001,-22.1725,-18.2875,3.29
622,4334547,0.774334,-0.023058000000000002,-0.8091041,-20.4925,-18.0775,6.58
623,4334645,0.743468,-0.049532,-0.7883640000000001,-19.145,-18.69,9.835
624,4334743,0.74237,-0.066246,-0.7549359999999999,-17.01,-20.6325,12.285
625,4334841,0.744566,-0.09516001,-0.7166279999999999,-14.4025,-23.1875,13.7375
626,4334939,0.737002,-0.11919400000000001,-0.677954,-12.0575,-24.815,14.735
627,4335037,0.7143101,-0.131638,-0.64904,-10.4825,-25.375,15.61
628,4335135,0.700646,-0.137128,-0.633058,-9.8175,-25.9175,16.485
629,4335233,0.70028,-0.132492,-0.6219561,-9.0825,-26.7575,18.025
630,4335330,0.6977180000000001,-0.13237000000000002,-0.6075600999999999,-9.1,-28.28,20.4925
631,4335428,0.6974739999999999,-0.125416,-0.59353,-9.6075,-29.7325,23.9575
632,4335526,0.69967,-0.1098,-0.5846241,-10.08,-29.9425,27.195
633,4335624,0.708942,-0.08332601,-0.5784020000000001,-11.0775,-29.4875,29.4
634,4335722,0.7101621,-0.07381001,-0.5751081,-12.11,-28.6125,30.7125
635,4335820,0.7093081,-0.056729999999999996,-0.5663239999999999,-12.7225,-27.685,31.0625
636,4335918,0.7056479999999999,-0.044407999999999996,-0.56913,-12.95,-26.635,30.205
637,4336016,0.69784,-0.03355,-0.573766,-13.055,-26.1975,28.735
638,4336114,0.6943020000000001,-0.025863999999999998,-0.562542,-12.53,-26.2675,26.3725
639,4336211,0.6895439999999999,-0.019764,-0.543388,-12.53,-25.83,23.9925
640,4336309,0.687104,-0.01403,-0.5247221,-13.125,-24.71,21.7175
641,4336407,0.68625,-0.015006,-0.506666,-14.2275,-23.0475,19.7225
642,4336505,0.6851520999999999,-0.029158,-0.497638,-15.75,-21.1575,17.7975
643,4336603,0.677344,-0.045384,-0.490196,-17.6225,-19.9325,16.38
644,4336701,0.681126,-0.06795401,-0.49837,-19.6175,-18.585,14.875
645,4336799,0.6882020000000001,-0.0793,-0.49837,-20.79,-17.2725,13.545
646,4336897,0.68747,-0.08954801,-0.484828,-22.435,-16.2925,12.355
647,4336995,0.6972301,-0.087352,-0.47482399999999997,-24.78,-13.965,11.445
648,4337093,0.70455,-0.07246799999999999,-0.486658,-26.705,-10.4125,10.6925
649,4337190,0.71736,-0.0427,-0.49129399999999995,-27.2825,-6.825,10.325
650,4337288,0.729438,-0.008906,-0.48958599999999997,-26.46,-3.29,10.43
651,4337386,0.745908,0.004392,-0.486048,-23.975,0.4025,11.095
652,4337484,0.748714,-0.004026,-0.48433999999999994,-19.8975,3.745,11.62
653,4337582,0.749202,-0.0122,-0.480314,-15.5225,6.51,11.3925
654,4337680,0.7645741,-0.008540001,-0.463966,-11.8825,9.24,10.0975
655,4337778,0.784704,0.008662000999999999,-0.447374,-10.4825,11.3225,7.63
656,4337876,0.7850699999999999,0.030744,-0.43907799999999997,-12.39,11.69,4.4625
657,4337973,0.781044,0.037942000000000004,-0.44408000000000003,-15.7325,11.9,0.07
658,4338071,0.7834840000000001,0.02745,-0.453474,-18.795,12.4775,-4.445
659,4338169,0.777872,-0.009028000999999999,-0.548146,-20.23,14.2275,-8.05
660,4338267,0.7984899999999999,-0.053314,-0.6928380000000001,-15.3125,17.7625,-10.7275
661,4338365,0.8282579999999999,-0.048922,-0.7539600000000001,-2.73,22.785,-11.9175
662,4338463,0.811666,-0.001586,-0.8020281,11.4975,29.47,-12.215
663,4338561,0.775188,0.07625,-0.8519260000000001,21.2625,35.4375,-12.8625
664,4338659,0.749202,0.126636,-0.8901120000000001,24.9025,38.395,-12.915
665,4338757,0.7187020000000001,0.15555,-0.9151219999999999,25.165,37.3275,-12.0925
666,4338854,0.71065,0.11614400000000001,-0.999668,24.7975,32.305,-11.5675
667,4338952,0.77836,0.139202,-0.9465981,27.9125,23.0825,-10.9375
668,4339050,0.780434,0.18751400000000001,-0.8869401,27.3525,14.4725,-10.7275
669,4339148,0.774334,0.140422,-0.898652,21.3675,7.1225,-12.4425
670,4339246,0.834968,0.031354,-0.9171961,18.5675,-0.5425,-13.86
671,4339344,0.8786440999999999,-0.07307801,-0.9237841,16.1875,-6.965,-14.175
672,4339442,0.900726,-0.14518,-0.8962120000000001,14.525,-11.9175,-15.61
673,4339540,0.9115840000000001,-0.192638,-0.878034,17.0975,-10.0275,-18.4975
674,4339638,0.915732,-0.198372,-0.887184,20.3175,-4.2175,-21.665
675,4339735,0.8999940000000001,-0.183488,-0.878034,21.35,-1.645,-23.9925
676,4339833,0.871568,-0.16348,-0.8439959999999999,20.02,-2.485,-25.375
677,4339931,0.8376520000000001,-0.12322000000000001,-0.801296,17.85,-4.725,-26.04
678,4340029,0.8086161000000001,-0.073688,-0.7523741,16.0475,-6.8775,-26.46
679,4340127,0.785802,-0.03172,-0.71797,14.385,-8.2775,-26.1975
680,4340225,0.765794,-0.016592,-0.69784,12.04,-10.2375,-25.1825
681,4340323,0.745054,-0.00976,-0.6722199999999999,9.135,-13.2475,-23.52
682,4340421,0.7195560000000001,-0.009272001,-0.6511140000000001,5.915,-16.0475,-22.225
683,4340519,0.682956,-0.004514,-0.626836,4.06,-18.025,-21.595
684,4340616,0.651846,-0.005612,-0.60695,3.0275,-18.9875,-21.5075
685,4340714,0.628666,-0.010858,-0.593164,2.3975,-19.18,-21.175
686,4340812,0.619638,-0.009394,-0.58621,1.75,-18.8475,-20.51
687,4340910,0.6197600000000001,-0.0051240009999999996,-0.577426,1.1375,-18.55,-19.74
688,4341008,0.62159,0.008174001,-0.5662020999999999,0.0525,-18.865,-18.9875
689,4341106,0.624396,0.005002,-0.552416,-0.385,-18.8475,-18.06
690,4341204,0.635498,0.017202000000000002,-0.547292,-0.8925,-17.9375,-17.0625
691,4341302,0.642818,0.025986000000000002,-0.542412,-1.5925,-17.0275,-16.0125
692,4341400,0.650138,0.02806,-0.543998,-1.575,-16.73,-14.77
693,4341498,0.656848,0.029889999999999996,-0.547536,-0.98,-16.5025,-13.72
694,4341595,0.6602640000000001,0.018666,-0.544608,0.5075,-16.2925,-12.6875
695,4341693,0.66551,0.009637999999999999,-0.545706,1.225,-15.89,-11.69
696,4341791,0.6802720999999999,0.000732,-0.544852,1.855,-15.2775,-11.095
697,4341889,0.69479,0.00061,-0.542412,3.1675,-14.28,-10.6925
698,4341987,0.702598,0.001464,-0.5382640000000001,4.5325,-13.51,-10.395
699,4342085,0.7068681,0.013175999999999998,-0.533506,5.845,-12.53,-9.8175
700,4342183,0.71248,0.032574,-0.529846,7.1925,-11.1125,-9.1525
701,4342281,0.717726,0.044407999999999996,-0.519964,7.98,-9.8175,-8.26
702,4342379,0.722362,0.054412,-0.5091061,8.7675,-8.3475,-7.0525
703,4342477,0.729072,0.06344,-0.49593000000000004,9.7825,-6.055,-6.0725
704,4342574,0.7248020000000001,0.060512,-0.49434399999999995,11.095,-3.2025,-5.3375
705,4342672,0.748104,0.074542,-0.49568599999999996,11.8475,0.0,-4.9875
706,4342770,0.7510321,0.069906,-0.48556000000000005,12.4075,3.2025,-5.4425
707,4342868,0.756278,0.08466801,-0.48519399999999996,12.5825,6.7725,-5.67
708,4342966,0.770308,0.10126,-0.489464,12.0575,9.135,-5.6
709,4343064,0.80093,0.090768,-0.490684,10.92,9.59,-5.6525
710,4343162,0.8388721,0.076494,-0.484584,10.045,9.2575,-5.6175
711,4343260,0.876326,0.05160601,-0.482022,10.1325,8.4,-5.4775
712,4343358,0.891576,0.02623,-0.486048,10.045,6.475,-5.705
713,4343455,0.899384,0.00671,-0.48397399999999996,8.96,4.69,-6.125
714,4343553,0.907192,-0.008052001,-0.48519399999999996,6.8425,3.6575,-7.0
715,4343651,0.9241501,-0.01891,-0.482876,4.9,3.4825,-8.2075
716,4343749,0.9221981,-0.014518000000000001,-0.475312,3.57,4.6375,-8.8725
717,4343847,0.904874,0.000122,-0.488854,2.9225,8.1025,-8.6275
718,4343945,0.8874280999999999,0.01098,-0.5859661,2.1,12.46,-8.2425
719,4344043,0.9146340000000001,0.017568,-0.705282,1.19,14.6475,-9.065
720,4344141,0.9650200999999999,-0.035868000000000004,-0.6777101,1.365,14.5425,-11.5675
721,4344239,0.9368380999999999,-0.07259,-0.691496,0.4375,17.29,-11.48
722,4344337,0.878034,-0.07442,-0.8113001,-6.02,20.195,-9.8525
723,4344434,0.8494860999999999,-0.055754,-0.845094,-13.5275,15.47,-11.2
724,4344532,0.801296,-0.032208,-0.7970261,-17.395,7.98,-12.8275
725,4344630,0.73627,-0.023058000000000002,-0.8504620999999999,-20.5275,4.4975,-12.7925
726,4344728,0.718824,-0.037942000000000004,-0.8690061,-28.035,-1.3125,-12.425
727,4344826,0.6919841,-0.108824,-0.8341139999999999,-36.015,-8.295,-11.305
728,4344924,0.65575,-0.15506199999999998,-0.775676,-37.3975,-8.5925,-7.525
729,4345022,0.618784,-0.133224,-0.782508,-36.68,-9.5025,-3.22
730,4345120,0.617686,-0.061610000000000005,-0.8006861,-33.95,-14.3675,-1.225
731,4345218,0.691496,0.024888,-0.83021,-28.21,-19.775,-1.96
732,4345315,0.8015399999999999,0.09625801,-0.81313,-18.76,-24.4125,-4.27
733,4345413,0.8784,0.132492,-0.785924,-12.46,-25.935,-4.4625
734,4345511,0.9167081,0.142496,-0.80093,-10.9725,-23.1875,-2.625
735,4345609,0.912926,0.128832,-0.8210601000000001,-9.8525,-20.79,-0.5775
736,4345707,0.8499741,0.097722,-0.8080061,-8.3825,-22.5925,2.1875
737,4345805,0.775798,0.06575800000000001,-0.777384,-4.8125,-24.29,4.8475
738,4345903,0.7378560000000001,0.024888,-0.744444,0.7175,-24.5875,5.6175
739,4346001,0.7232161,-0.015982,-0.70455,5.215,-25.9,5.53
740,4346099,0.720166,-0.060877999999999995,-0.677832,6.8425,-27.3175,5.285
741,4346197,0.7147979999999999,-0.10675,-0.6600201,7.0175,-28.035,5.04
742,4346295,0.707234,-0.124196,-0.6373281,6.615,-28.4025,4.83
743,4346392,0.71004,-0.138836,-0.62342,6.58,-28.105,4.9875
744,4346490,0.708576,-0.14457,-0.611952,6.2475,-27.5975,6.4925
745,4346588,0.705038,-0.142374,-0.59963,5.25,-27.86,8.785
746,4346686,0.69967,-0.136274,-0.593286,4.2,-28.1575,11.3575
747,4346784,0.698328,-0.115534,-0.593774,3.5175,-27.93,13.5975
748,4346882,0.7044279999999999,-0.10430999999999999,-0.5959701,3.5875,-27.335,15.5575
749,4346980,0.708332,-0.10345599999999999,-0.59292,4.025,-26.7225,17.4475
750,4347078,0.71492,-0.09320801,-0.586454,3.99,-26.0575,18.725
751,4347176,0.720776,-0.08893801,-0.587796,3.0625,-25.095,19.145
752,4347274,0.712236,-0.081984,-0.587674,2.0475,-24.8675,18.6025
753,4347371,0.702476,-0.07515201,-0.579622,1.61,-25.2525,17.22
754,4347469,0.697962,-0.07222401,-0.5696180000000001,1.26,-25.6725,15.47
755,4347567,0.699914,-0.06575800000000001,-0.5605899999999999,0.0875,-26.1625,13.58
756,4347665,0.70638,-0.069784,-0.549854,-2.065,-26.8975,11.9875
757,4347763,0.7129681,-0.07747001,-0.538996,-5.11,-26.985,10.6575
758,4347861,0.7190681,-0.094306,-0.537898,-8.645,-27.1075,9.625
759,4347959,0.722118,-0.1037,-0.540094,-12.2325,-28.105,9.065
760,4348057,0.729438,-0.110776,-0.532774,-15.26,-29.82,8.75
761,4348154,0.7259001,-0.125904,-0.543266,-17.5175,-30.8,8.54
762,4348252,0.729804,-0.14310599999999998,-0.525698,-18.305,-30.6075,8.295
763,4348350,0.721508,-0.150792,-0.496906,-18.375,-28.07,8.33
764,4348448,0.7135779999999999,-0.143228,-0.480192,-18.6375,-22.085,8.155
765,4348546,0.69967,-0.113094,-0.48592609999999997,-19.285,-14.07,8.3125
766,4348644,0.6946681,-0.08954801,-0.477142,-20.265,-6.58,8.61
767,4348742,0.699548,-0.070638,-0.45457200000000003,-21.91,-0.98,9.03
768,4348840,0.698328,-0.052703999999999994,-0.429562,-23.59,2.8525,9.695
769,4348938,0.69906,-0.031110000000000002,-0.40979799999999994,-25.0425,4.3575,9.695
770,4349035,0.703574,-0.015738,-0.407846,-26.5125,4.76,8.6625
771,4349133,0.72285,-0.008174001,-0.41236000000000006,-27.51,5.0575,7.245
772,4349231,0.738588,0.005612,-0.43651599999999996,-28.245,5.4425,5.1275
773,4349329,0.731268,0.001098,-0.529968,-27.475,7.63,2.1875
774,4349427,0.7361481,-0.015982,-0.71797,-22.26,12.425,-1.855
775,4349525,0.762744,-0.015493999999999999,-0.873276,-10.255,19.67,-5.215
776,4349623,0.8099581,0.00366,-0.9791719999999999,6.02,30.065,-6.8075
777,4349721,0.8310639999999999,0.07869,-1.041026,22.085,43.2075,-6.1775
778,4349819,0.8044680999999999,0.19483399999999998,-1.003938,32.8475,55.0375,-4.9525
779,4349916,0.74542,0.26303200000000004,-1.002108,34.65,59.885,-4.41
780,4350014,0.747738,0.245464,-0.9439139999999999,32.1125,52.36,-3.815
781,4350112,0.7440781,0.22143000000000002,-0.844972,26.3025,32.97,-3.9725
782,4350210,0.7116260999999999,0.1464,-0.8620521000000001,13.1425,9.6075,-6.3875
783,4350308,0.7260220000000001,0.032330000000000005,-0.89426,3.9725,-10.885,-9.5725
784,4350406,0.780068,-0.069906,-0.8992620000000001,2.065,-20.3875,-11.2875
785,4350504,0.8397261,-0.153232,-0.88023,1.9775,-19.215,-12.845
786,4350602,0.882548,-0.19861600000000001,-0.8910879999999999,3.29,-11.515,-14.735
787,4350700,0.8851100000000001,-0.208132,-0.9153661,6.825,-4.2525,-17.185
788,4350797,0.8549761,-0.189222,-0.9152440000000001,11.5325,-2.52,-20.02
789,4350895,0.81801,-0.14786400000000002,-0.8760819999999999,12.7925,-4.025,-22.3125
790,4350993,0.7856801,-0.125416,-0.834358,11.4275,-3.29,-23.24
791,4351091,0.7671359999999999,-0.09162200000000001,-0.81435,10.3775,-0.6125,-24.2725
792,4351189,0.7626221,-0.054778,-0.8025161,9.3975,0.315,-24.3075
793,4351287,0.75213,-0.022936,-0.788852,7.28,-1.3825,-22.6625
794,4351385,0.733952,-0.004026,-0.768234,5.3025,-4.5325,-20.1075
795,4351483,0.7018661,0.009637999999999999,-0.751154,3.4825,-8.1725,-17.325
796,4351581,0.672342,0.016225999999999997,-0.7300479999999999,1.995,-12.145,-15.3475
797,4351678,0.643794,0.016225999999999997,-0.705404,0.6125,-16.0475,-14.42
798,4351776,0.621346,0.009028000999999999,-0.671244,-0.7875,-19.5475,-14.1575
799,4351874,0.599142,0.00427,-0.639402,-1.8025,-21.77,-13.72
800,4351972,0.589016,0.0051240009999999996,-0.619394,-3.29,-22.54,-12.81
801,4352070,0.590114,0.011834,-0.60207,-4.7425,-22.785,-11.55
802,4352168,0.6001181,0.016104,-0.592188,-5.74,-22.33,-10.4475
803,4352266,0.6128060000000001,0.016225999999999997,-0.583404,-5.95,-21.525,-9.4325
804,4352364,0.6186619999999999,0.026351999999999997,-0.582062,-5.7925,-20.4225,-8.61
805,4352462,0.621834,0.02135,-0.58011,-5.1975,-19.6875,-8.0325
806,4352560,0.619638,0.017202000000000002,-0.5857220000000001,-4.515,-18.655,-7.8225
807,4352657,0.621224,0.023302,-0.5919439999999999,-3.85,-17.3425,-8.365
808,4352755,0.637206,0.026962,-0.5888939999999999,-2.6775,-15.8725,-9.3625
809,4352853,0.6512359999999999,0.044286,-0.585112,-1.5575,-14.9625,-10.5175
810,4352951,0.662216,0.0549,-0.576328,-0.6825,-15.2775,-11.0075
811,4353049,0.674782,0.06661201,-0.5696180000000001,-0.1225,-16.31,-10.57
812,4353147,0.6864941,0.068564,-0.553758,1.4875,-16.8175,-10.43
813,4353245,0.690398,0.081618,-0.546926,4.3925,-15.75,-10.6925
814,4353343,0.6869821,0.08479,-0.5352140000000001,7.42,-14.4025,-11.0075
815,4353440,0.6882020000000001,0.08308201,-0.517768,10.1675,-12.6525,-10.2725
816,4353538,0.6980841,0.082228,-0.5104479999999999,12.705,-9.625,-9.24
817,4353636,0.709796,0.08235001,-0.5060560000000001,14.91,-5.4075,-8.1725
818,4353734,0.715408,0.06771001,-0.49166000000000004,17.0625,-0.77,-7.315
819,4353832,0.72468,0.085888,-0.49605200000000005,19.495,4.62,-6.9825
820,4353930,0.7299260999999999,0.071858,-0.48214399999999996,20.4575,9.6425,-7.63
821,4354028,0.72346,0.078446,-0.46298999999999996,20.685,14.28,-8.0325
822,4354126,0.732366,0.081862,-0.461404,19.32,18.83,-8.54
823,4354224,0.7522521,0.074298,-0.460916,17.395,21.455,-8.9775
824,4354321,0.772992,0.059536,-0.459818,15.3475,20.685,-9.1
825,4354419,0.7956840999999999,0.02135,-0.45274200000000003,13.8775,16.765,-8.5925
826,4354517,0.82411,-0.008784,-0.461038,12.3025,13.3,-7.875
827,4354615,0.8582700999999999,-0.022692,-0.466772,10.08,11.2525,-8.54
828,4354713,0.8926741,-0.029036000000000003,-0.47909399999999996,8.1025,10.955,-10.0625
829,4354811,0.915976,-0.032574,-0.512278,5.9325,12.3725,-11.2875
830,4354909,0.918416,-0.05002,-0.542778,4.69,15.4,-11.445
831,4355007,0.8860860999999999,-0.036233999999999995,-0.700646,4.34,21.1225,-10.535
832,4355105,0.925736,-0.04575,-0.774822,3.885,27.44,-11.5675
833,4355202,0.9818561,-0.09394001,-0.752496,4.1125,34.6675,-14.6125
834,4355300,0.9502581,-0.12712400000000001,-0.8174001000000001,-0.455,42.2625,-14.385
835,4355398,0.868884,-0.135664,-0.8820601,-11.7775,43.33,-12.145
836,4355496,0.795074,-0.104432,-0.8563181000000001,-21.105,37.3975,-12.9325
837,4355594,0.723094,-0.054412,-0.8513161,-26.5475,29.715,-14.8225
838,4355692,0.705892,-0.06941801,-0.7914140000000001,-33.32,19.7575,-15.365
839,4355790,0.6755140000000001,-0.120048,-0.7340741,-37.45,12.145,-12.1975
840,4355888,0.649528,-0.108458,-0.750788,-39.2,5.2675,-6.3175
841,4355986,0.650626,-0.05795,-0.815326,-41.44,-4.6375,-2.9575
842,4356083,0.7135779999999999,-0.007320001,-0.821792,-39.34,-11.4275,-3.325
843,4356181,0.803858,0.03599,-0.809348,-31.6925,-12.8275,-4.9175
844,4356279,0.8840120000000001,0.071004,-0.8245979999999999,-25.2875,-12.7575,-6.1075
845,4356377,0.939766,0.10492,-0.8413120000000001,-23.03,-12.775,-6.7025
846,4356475,0.9580661,0.128222,-0.8432639999999999,-20.93,-11.0775,-6.5625
847,4356573,0.9496479999999999,0.12017,-0.852902,-17.815,-10.535,-5.565
848,4356671,0.8912100000000001,0.0976,-0.844606,-15.12,-14.07,-2.0475
849,4356769,0.823378,0.05648601,-0.813984,-12.6,-16.555,3.9375
850,4356867,0.773968,0.0183,-0.782508,-9.905,-16.3625,9.3275
851,4356965,0.75945,-0.02196,-0.740296,-8.1025,-16.485,12.495
852,4357062,0.751276,-0.07039400000000001,-0.7046720999999999,-6.685,-17.885,14.385
853,4357160,0.7394421,-0.10492,-0.6756361,-5.285,-20.37,15.7675
854,4357258,0.72407,-0.133102,-0.649284,-4.06,-23.1875,16.415
855,4357356,0.712114,-0.1342,-0.623664,-3.255,-24.3775,17.2025
856,4357454,0.711504,-0.133468,-0.6103661,-3.08,-24.6575,18.3225
857,4357552,0.720776,-0.13078399999999998,-0.604632,-3.4475,-25.375,20.65
858,4357650,0.718824,-0.117974,-0.5871860999999999,-3.815,-26.1275,23.5025
859,4357748,0.720776,-0.106628,-0.57218,-3.9375,-26.145,26.495
860,4357846,0.7165060000000001,-0.09442801,-0.56608,-3.6575,-25.7775,28.84
861,4357944,0.7108941,-0.08332601,-0.5594920999999999,-3.2375,-25.9525,30.52
862,4358041,0.711992,-0.07978801,-0.558394,-3.045,-25.7425,30.8525
863,4358139,0.71248,-0.067832,-0.5547340000000001,-2.975,-25.3925,30.1
864,4358237,0.7171161,-0.055265999999999996,-0.552294,-3.6575,-25.5325,27.86
865,4358335,0.71797,-0.047458,-0.5388741,-4.655,-26.9325,24.7275
866,4358433,0.7171161,-0.04087,-0.515938,-5.9325,-28.49,21.2975
867,4358531,0.726388,-0.0366,-0.49434399999999995,-7.805,-28.875,18.1475
868,4358629,0.7287060000000001,-0.044774,-0.47958199999999995,-10.36,-28.7875,15.68
869,4358727,0.7237041,-0.05843801,-0.47397,-13.1425,-28.6825,14.035
870,4358825,0.714554,-0.06832001,-0.475922,-15.9425,-28.5425,12.6875
871,4358923,0.708088,-0.07856801,-0.48433999999999994,-18.235,-27.4575,11.585
872,4359020,0.710284,-0.098088,-0.49605200000000005,-20.685,-24.9725,10.6925
873,4359118,0.710284,-0.112972,-0.488976,-22.435,-22.855,10.045
874,4359216,0.69418,-0.125172,-0.45383999999999997,-22.6625,-18.4975,9.17
875,4359314,0.685762,-0.114802,-0.442982,-23.6425,-10.535,8.645
876,4359412,0.692228,-0.094062,-0.45164399999999993,-24.6575,-3.535,8.4
877,4359510,0.7021101,-0.061975999999999996,-0.456646,-23.8525,-0.105,8.6625
878,4359608,0.7269979999999999,-0.030256,-0.43432,-22.365,1.96,9.345
879,4359706,0.74237,-0.009637999999999999,-0.407602,-21.0175,4.865,9.94
880,4359804,0.74298,0.012078,-0.38003000000000003,-20.125,8.2775,9.485
881,4359901,0.732854,0.031842,-0.370026,-21.035,11.2,7.595
882,4359999,0.726388,0.043798000000000004,-0.388204,-23.905,12.495,4.3225
883,4360097,0.729438,0.039406000000000004,-0.41882600000000003,-27.475,11.9,0.5425
884,4360195,0.732122,-0.004514,-0.539484,-29.9775,12.3375,-3.01
885,4360293,0.7692101,-0.07076001,-0.7470060000000001,-26.3025,16.1,-5.53
886,4360391,0.8235001000000001,-0.078446,-0.8713241,-13.9475,21.9625,-6.1775
887,4360489,0.847412,-0.051362,-0.975878,0.0175,28.21,-4.7425
888,4360587,0.8413120000000001,0.01586,-1.029924,11.7075,32.6725,-3.08
889,4360685,0.8176439999999999,0.10638399999999999,-0.990274,18.69,32.69,-2.1
890,4360783,0.746762,0.200324,-0.9608721,19.4425,31.7275,-1.6625
891,4360880,0.7451760000000001,0.196908,-0.9389120000000001,17.5175,28.56,-2.0125
892,4360978,0.8030041,0.21899000000000002,-0.9036540000000001,16.5725,18.9,-1.8375
893,4361076,0.793976,0.19215,-0.8820601,12.04,3.2375,-1.6975
894,4361174,0.7999539999999999,0.10943399999999999,-0.8823040000000001,8.05,-13.79,-3.08
895,4361272,0.8571719999999999,-0.002562,-0.873886,7.14,-23.0475,-4.55
896,4361370,0.889258,-0.082838,-0.8759601,7.1225,-21.9975,-5.5825
897,4361468,0.9120720999999999,-0.146522,-0.8692501,10.4125,-15.8375,-9.065
898,4361566,0.9128040000000001,-0.16835999999999998,-0.8841341,15.4175,-7.9625,-13.51
899,4361664,0.8820601,-0.15396400000000002,-0.8764481,18.48,-4.165,-17.955
900,4361761,0.835822,-0.11736400000000001,-0.845582,18.06,-3.465,-21.595
901,4361859,0.79422,-0.07832401,-0.8141060999999999,15.645,-3.0275,-24.2375
902,4361957,0.774456,-0.03477,-0.792146,13.37,-3.0275,-26.0925
903,4362055,0.7670140000000001,0.0064659999999999995,-0.7754321,11.34,-4.69,-26.67
904,4362153,0.74847,0.034648000000000005,-0.749934,10.2375,-7.91,-25.585
905,4362251,0.7288279999999999,0.041236,-0.731024,9.66,-11.1475,-23.6775
906,4362349,0.70821,0.043432,-0.7086979999999999,9.415,-14.665,-22.295
907,4362447,0.6785640000000001,0.033062,-0.6828341,9.6775,-18.62,-21.63
908,4362545,0.650382,0.028669999999999998,-0.658922,8.8025,-22.155,-21.4725
909,4362643,0.634644,0.023912,-0.6347661,7.0525,-24.0975,-21.77
910,4362741,0.624152,0.017568,-0.6157341,5.1625,-24.2375,-21.5775
911,4362839,0.6197600000000001,0.013175999999999998,-0.599142,3.3075,-23.975,-21.0175
912,4362936,0.6141479999999999,0.014762,-0.58499,1.68,-23.2225,-20.2475
913,4363034,0.6206141,0.007808001,-0.573156,0.5075,-21.805,-19.46
914,4363132,0.624396,-0.0017079999999999999,-0.564128,0.105,-20.2825,-18.4625
915,4363230,0.62037,-0.005734,-0.557174,-0.4025,-19.4075,-17.01
916,4363328,0.6170760000000001,-0.023180000000000003,-0.552904,-1.0675,-19.0925,-15.435
917,4363426,0.6140260000000001,-0.027572000000000003,-0.55815,-1.4,-19.3025,-13.7375
918,4363524,0.622688,-0.027816000000000004,-0.562908,-1.26,-19.915,-12.6
919,4363622,0.636962,-0.023424,-0.5602239999999999,-0.315,-20.4575,-11.8825
920,4363720,0.649284,-0.020252000000000003,-0.54656,0.525,-20.7725,-10.8325
921,4363818,0.6661201,-0.005978,-0.540826,0.805,-20.58,-9.275
922,4363916,0.6830781,0.011468,-0.532896,0.945,-20.3,-7.4725
923,4364014,0.696254,0.031232,-0.533018,1.225,-19.775,-6.1775
924,4364111,0.707966,0.045262000000000004,-0.5383861,2.0825,-18.7425,-5.2325
925,4364209,0.7204100999999999,0.06380599999999999,-0.539484,3.255,-17.2025,-4.445
926,4364307,0.7241920000000001,0.07978801,-0.5314321,4.8475,-14.9625,-3.36
927,4364405,0.7269979999999999,0.09650201,-0.525942,6.58,-11.655,-2.1
928,4364503,0.71858,0.104066,-0.5388741,9.6775,-8.4875,-1.155
929,4364601,0.7387100000000001,0.11358199999999999,-0.5455840000000001,12.74,-6.0725,-0.665
930,4364699,0.740418,0.11577799999999999,-0.540826,15.61,-5.215,-0.875
931,4364797,0.7415161,0.11236199999999999,-0.521184,18.3225,-3.6575,-1.435
932,4364895,0.754204,0.101016,-0.50935,20.4575,-0.1575,-2.2575
933,4364993,0.7779941,0.09869801,-0.5121560000000001,21.56,4.025,-4.0425
934,4365091,0.7986121,0.099552,-0.519476,21.1575,5.9675,-6.2125
935,4365188,0.8282579999999999,0.097478,-0.5103260000000001,20.5975,5.74,-8.1025
936,4365286,0.8463139999999999,0.08784,-0.49861400000000006,20.0725,4.69,-9.4675
937,4365384,0.8555860999999999,0.06124401,-0.498126,18.27,3.325,-10.3775
938,4365482,0.8605879999999999,0.027816000000000004,-0.5038600000000001,15.68,2.555,-11.3575
939,4365580,0.8664440000000001,-0.014518000000000001,-0.508252,13.09,3.3425,-12.4075
940,4365678,0.85888,-0.039528,-0.554002,10.955,6.7025,-12.88
941,4365776,0.8546101,-0.04453,-0.690154,8.925,11.4625,-12.7925
942,4365874,0.9015799999999999,-0.060634,-0.741394,8.0675,15.715,-14.175
943,4365972,0.94001,-0.10248,-0.730902,9.03,21.525,-16.0125
944,4366070,0.9214661,-0.137372,-0.7645741,3.9725,28.875,-14.35
945,4366168,0.8636379999999999,-0.14005599999999999,-0.8188641,-7.7175,31.7275,-11.5325
946,4366266,0.7984899999999999,-0.090036,-0.8197180000000001,-17.1325,26.1275,-10.2725
947,4366363,0.7266321,-0.038186000000000005,-0.8690061,-22.3475,16.975,-9.695
948,4366461,0.73444,-0.06466001,-0.802272,-25.7075,8.1725,-8.3475
949,4366559,0.7196779999999999,-0.14762,-0.7143101,-28.98,3.4475,-4.0075
950,4366657,0.64599,-0.159332,-0.703696,-30.625,1.9075,2.66
951,4366755,0.5846241,-0.134444,-0.778482,-32.41,-3.64,5.53
952,4366853,0.5903579999999999,-0.099552,-0.83021,-29.4525,-10.6925,3.01
953,4366951,0.6569699999999999,-0.051362,-0.831674,-21.945,-15.54,-2.1175
954,4367049,0.7617681,-0.011101999999999999,-0.793244,-14.35,-16.1875,-6.895
955,4367147,0.8519260000000001,0.028304000000000003,-0.791048,-13.0025,-13.0025,-8.47
956,4367245,0.910242,0.058682000000000005,-0.839116,-18.2525,-8.365,-7.665
957,4367342,0.921832,0.07344400000000001,-0.8810841,-23.1525,-6.16,-5.1625
958,4367440,0.8730319999999999,0.05185,-0.8975540000000001,-24.6225,-9.485,-0.6475
959,4367538,0.79422,0.013786000000000001,-0.892918,-23.7475,-16.7825,4.8475
960,4367636,0.755912,-0.02074,-0.852902,-21.1925,-22.785,9.275
961,4367734,0.737002,-0.08857201,-0.79483,-18.55,-25.13,12.6875
962,4367832,0.7287060000000001,-0.14762,-0.749568,-17.395,-25.865,14.7175
963,4367930,0.714554,-0.20679,-0.720166,-16.555,-25.5325,15.4175
964,4368028,0.696986,-0.236314,-0.6974739999999999,-16.4325,-24.745,15.6625
965,4368126,0.67832,-0.239486,-0.672586,-16.2575,-24.4475,15.575
966,4368224,0.6707561,-0.22582199999999997,-0.6514800000000001,-17.395,-24.6925,16.7125
967,4368322,0.671976,-0.20105599999999998,-0.6378159999999999,-18.9175,-25.725,19.4075
968,4368419,0.682712,-0.18483,-0.6317159999999999,-20.4225,-27.37,22.925
969,4368517,0.688446,-0.157502,-0.617442,-21.84,-29.6975,26.6175
970,4368615,0.691496,-0.118584,-0.612074,-23.135,-31.5175,29.3825
971,4368713,0.690398,-0.08625401,-0.612074,-23.45,-31.71,31.1675
972,4368811,0.676856,-0.055388,-0.6039,-23.38,-30.8525,32.2
973,4368909,0.67161,-0.02806,-0.6008501,-22.6275,-29.855,32.4275
974,4369007,0.668072,-0.006344,-0.603046,-21.1225,-29.2075,31.1325
975,4369105,0.662826,0.005612,-0.597312,-19.3725,-29.645,28.9625
976,4369203,0.66246,0.00549,-0.5766939999999999,-17.15,-30.1,26.1975
977,4369301,0.663924,-0.004392,-0.553392,-15.5575,-29.6275,23.3625
978,4369399,0.6734399999999999,-0.011834,-0.541558,-16.275,-28.21,21.0175
979,4369496,0.681492,-0.030378,-0.5353359999999999,-18.585,-26.985,19.11
980,4369594,0.684176,-0.04575,-0.536922,-21.315,-26.4075,17.4825
981,4369692,0.6855180000000001,-0.059048,-0.546072,-23.6775,-26.2675,15.8375
982,4369790,0.693204,-0.06539201,-0.547536,-25.4275,-25.9,14.28
983,4369888,0.708454,-0.08369201,-0.552172,-26.4425,-24.0975,12.9325
984,4369986,0.708942,-0.08332601,-0.515938,-26.495,-21.7175,11.97
985,4370084,0.693692,-0.08649801,-0.48678,-26.7925,-16.065,10.9025
986,4370182,0.690032,-0.07393200000000001,-0.495076,-27.0725,-7.9275,9.87
987,4370280,0.691008,-0.044164,-0.48397399999999996,-27.405,-1.8025,8.925
988,4370378,0.6791739999999999,-0.010126000000000001,-0.468602,-28.595,2.0125,8.6975
989,4370475,0.686372,0.012322,-0.450668,-28.455,5.6525,8.8725
990,4370573,0.688812,0.024522,-0.437126,-26.915,9.6775,9.45
991,4370671,0.6967420999999999,0.029401999999999998,-0.428464,-25.8125,13.8775,9.625
992,4370769,0.711016,0.024522,-0.41760600000000003,-24.885,17.9725,8.995
993,4370867,0.7183361,0.032208,-0.40138,-24.955,20.2125,7.4375
994,4370965,0.715286,0.030866,-0.395158,-25.62,21.14,4.7075
995,4371063,0.71675,0.032818,-0.44029799999999997,-27.0375,22.785,1.4875
996,4371161,0.718946,0.0122,-0.6001181,-27.65,24.5525,-2.0125
997,4371259,0.769088,-0.020496,-0.819108,-22.8375,28.0875,-4.76
998,4371357,0.8526581,-0.013663999999999999,-0.886574,-10.0625,33.7925,-5.6175
999,4371455,0.8510719999999999,0.014396,-0.9799041,4.69,40.3025,-3.5525
1000,4371553,0.818498,0.07637200000000001,-1.0248,19.5125,47.2675,-1.5925
1001,4371650,0.772626,0.169214,-0.9945440000000001,30.73,51.905,-1.3825
1002,4371748,0.7135779999999999,0.255468,-0.934642,34.685,52.6225,-2.31
1003,4371846,0.657092,0.2379,-0.9318360000000001,30.6775,45.815,-3.99
1004,4371944,0.712114,0.150792,-0.9282981,24.57,30.8525,-5.0575
1005,4372042,0.75884,0.13237000000000002,-0.9023121,18.585,11.4275,-4.655
1006,4372140,0.762988,0.08454600000000001,-0.8873059999999999,9.8875,-6.7375,-5.0925
1007,4372238,0.8254520000000001,-0.003782,-0.9019459999999999,4.9525,-15.7675,-6.44
1008,4372336,0.895602,-0.086132,-0.913658,5.215,-13.5975,-7.91
1009,4372434,0.91195,-0.146644,-0.9073141,8.0675,-8.2075,-10.3425
1010,4372532,0.9023121,-0.171776,-0.8921860999999999,11.9525,-3.885,-13.9125
1011,4372629,0.869616,-0.154818,-0.88633,15.015,-1.7675,-18.4625
1012,4372727,0.832894,-0.11504600000000001,-0.8605879999999999,16.3625,-2.0125,-22.47
1013,4372825,0.810446,-0.08503401,-0.8294780999999999,15.575,-1.925,-24.9025
1014,4372923,0.8044680999999999,-0.052582000000000004,-0.8054439999999999,14.2275,-0.7875,-26.145
1015,4373021,0.800076,-0.025254,-0.7890961,13.09,-0.4375,-26.25
1016,4373119,0.800198,-0.00488,-0.781166,11.55,-1.9775,-25.3575
1017,4373217,0.787266,0.007808001,-0.765672,10.115,-5.215,-24.3425
1018,4373315,0.7712840999999999,0.007076001,-0.744322,8.855,-9.3975,-23.3975
1019,4373413,0.7494460000000001,0.015372,-0.720654,7.805,-13.02,-22.82
1020,4373511,0.7224841,0.021716,-0.687592,7.5775,-16.1525,-22.6625
1021,4373608,0.693448,0.032818,-0.652944,7.63,-18.5325,-22.75
1022,4373706,0.66673,0.041114,-0.624518,7.5425,-20.0025,-22.085
1023,4373804,0.6456241,0.045994,-0.608902,6.58,-20.8775,-20.825
1024,4373902,0.6350100000000001,0.041236,-0.59231,5.705,-21.315,-19.285
1025,4374000,0.63135,0.034282,-0.5846241,4.9,-21.1925,-17.955
1026,4374098,0.6368401,0.027694,-0.5857220000000001,4.13,-20.65,-16.835
1027,4374196,0.646112,0.029524,-0.5892601,3.99,-20.195,-16.1525
1028,4374294,0.6512359999999999,0.039894,-0.59109,4.1475,-20.1075,-16.2225
1029,4374392,0.65209,0.03599,-0.5859661,4.375,-19.81,-16.03
1030,4374490,0.655628,0.030256,-0.5859661,3.9025,-19.04,-15.7675
1031,4374587,0.657702,0.016347999999999998,-0.5827939999999999,3.395,-18.13,-15.5925
1032,4374685,0.66246,0.014518000000000001,-0.580842,3.43,-17.605,-15.5925
1033,4374783,0.6695361,0.00305,-0.572912,3.6925,-17.5875,-15.4
1034,4374881,0.680516,0.0051240009999999996,-0.55937,3.9025,-17.78,-15.1025
1035,4374979,0.6912520000000001,0.011956,-0.547048,4.375,-17.6225,-15.12
1036,4375077,0.696498,0.017934000000000002,-0.533506,5.81,-16.7825,-15.0675
1037,4375175,0.693204,0.033062,-0.522526,7.245,-15.4175,-14.665
1038,4375273,0.686006,0.042334,-0.515328,8.785,-13.615,-14.1225
1039,4375371,0.681248,0.05160601,-0.508618,9.9925,-11.83,-12.95
1040,4375469,0.681126,0.057339999999999995,-0.496174,10.8325,-10.15,-11.41
1041,4375566,0.6834439999999999,0.053070000000000006,-0.489098,11.83,-8.4525,-9.555
1042,4375665,0.6882020000000001,0.056852,-0.48519399999999996,12.7925,-6.37,-7.77
1043,4375762,0.699914,0.060512,-0.475922,14.0,-4.095,-6.265
1044,4375860,0.7088201,0.062586,-0.46921199999999996,15.155,-1.6625,-4.97
1045,4375958,0.719312,0.061732,-0.46774799999999994,16.0475,0.9275,-3.815
1046,4376056,0.734928,0.067832,-0.46738199999999996,16.73,3.8325,-3.08
1047,4376154,0.747738,0.07222401,-0.467504,16.52,6.5625,-3.3425
1048,4376252,0.769942,0.067832,-0.46921199999999996,16.1,8.155,-4.27
1049,4376350,0.788852,0.06588,-0.470188,15.6625,9.6775,-5.5825
1050,4376448,0.8136180000000001,0.05770599999999999,-0.458354,15.47,10.0975,-7.175
1051,4376545,0.8382620000000001,0.041236,-0.45591400000000004,15.015,9.31,-8.26
1052,4376643,0.8604661,0.032330000000000005,-0.47153,13.9125,7.315,-9.205
1053,4376741,0.8866961,0.026595999999999998,-0.47763,11.305,5.18,-10.1675
1054,4376839,0.9272,0.0183,-0.5058121,8.2425,4.2,-11.06
1055,4376937,0.9651421,0.01037,-0.529846,6.1075,5.3025,-11.69
1056,4377035,0.968924,0.001464,-0.6034121,4.235,8.9425,-11.6725
1057,4377133,0.966118,-0.00366,-0.744688,2.1875,13.895,-11.445
1058,4377231,1.003938,-0.042578,-0.760304,0.0175,18.235,-12.67
1059,4377329,1.0138200000000002,-0.081374,-0.762012,-2.73,26.2675,-12.9675
1060,4377427,0.9772200999999999,-0.1037,-0.8407021000000001,-10.1325,35.1925,-11.095
1061,4377525,0.930494,-0.10418800000000002,-0.89975,-19.04,35.49,-9.695
1062,4377623,0.8794981,-0.071858,-0.853512,-22.8375,28.6125,-9.7825
1063,4377720,0.81862,-0.029646,-0.8543661,-23.3975,21.945,-9.765
1064,4377818,0.7986121,-0.021228,-0.784338,-24.605,13.5975,-9.1175
1065,4377916,0.743346,-0.005246,-0.730536,-26.9675,5.7575,-6.1075
1066,4378014,0.6825899999999999,0.0035380000000000003,-0.7476161,-28.945,-3.3775,-2.1875
1067,4378112,0.637206,0.021472,-0.795074,-28.035,-13.685,-0.9975
1068,4378210,0.61061,0.045994,-0.79971,-21.8225,-18.55,-3.4125
1069,4378308,0.633912,0.0488,-0.7659161,-14.1925,-16.1525,-7.595
1070,4378406,0.692106,0.051118000000000004,-0.753472,-8.3825,-9.03,-11.0425
1071,4378504,0.74664,0.05977999999999999,-0.781532,-6.65,-3.6575,-12.6525
1072,4378602,0.793244,0.075762,-0.8049561,-7.21,-3.92,-13.2125
1073,4378700,0.8280139999999999,0.076738,-0.8270379999999999,-9.3975,-8.54,-13.3
1074,4378798,0.8483879999999999,0.051972000000000004,-0.846558,-11.095,-15.1025,-12.5475
1075,4378895,0.8410681000000001,0.018544,-0.8414341000000001,-10.57,-20.9475,-9.6075
1076,4378993,0.804346,0.015738,-0.81862,-8.085,-24.815,-5.1275
1077,4379091,0.7788480999999999,0.007686,-0.777384,-4.0075,-26.53,-1.435
1078,4379189,0.774578,0.004392,-0.72895,1.4,-26.3375,1.4
1079,4379287,0.765794,-0.018056,-0.682712,6.51,-25.2875,3.57
1080,4379385,0.7571321,-0.061,-0.654652,9.0825,-25.0425,5.6
1081,4379483,0.7315119999999999,-0.10052799999999999,-0.630008,10.01,-25.7775,6.8425
1082,4379581,0.71004,-0.122,-0.60817,9.485,-26.74,7.49
1083,4379679,0.6939361,-0.119804,-0.588162,8.8375,-26.8625,7.7525
1084,4379777,0.687592,-0.11712,-0.574254,8.365,-26.1275,8.295
1085,4379874,0.6960101,-0.12358599999999999,-0.5675439999999999,7.9625,-25.5325,9.38
1086,4379972,0.696864,-0.125172,-0.568276,7.2625,-25.2525,11.41
1087,4380070,0.7041841,-0.11760799999999999,-0.5696180000000001,5.8625,-25.8125,13.755
1088,4380168,0.71248,-0.10394400000000001,-0.5777920999999999,4.2875,-26.5475,15.8725
1089,4380266,0.72651,-0.09650201,-0.579012,3.9025,-27.685,17.0625
1090,4380364,0.7407841,-0.082594,-0.571448,5.215,-27.9475,17.5875
1091,4380462,0.7406621,-0.061610000000000005,-0.5575399999999999,6.335,-27.475,17.815
1092,4380560,0.72651,-0.044407999999999996,-0.541802,7.21,-26.6175,17.36
1093,4380658,0.7162621,-0.033428,-0.5368,7.42,-25.935,16.2225
1094,4380755,0.70943,-0.035746,-0.527284,6.9475,-26.495,15.1725
1095,4380853,0.7093081,-0.040748,-0.519598,5.635,-27.51,14.28
1096,4380951,0.71553,-0.05612,-0.5002,3.6575,-28.1225,13.3
1097,4381049,0.7171161,-0.07234600000000001,-0.49446599999999996,0.35,-28.665,12.285
1098,4381147,0.720166,-0.097722,-0.490562,-3.115,-29.085,11.165
1099,4381245,0.71675,-0.1159,-0.480436,-5.9675,-29.2775,9.9925
1100,4381343,0.709064,-0.133224,-0.475922,-8.2775,-27.755,8.75
1101,4381441,0.6986939999999999,-0.144448,-0.482998,-10.78,-24.7625,8.0325
1102,4381539,0.68076,-0.148596,-0.462746,-12.5125,-20.195,7.6125
1103,4381636,0.664168,-0.12895399999999999,-0.44420200000000004,-13.3,-13.0725,7.0175
1104,4381734,0.664412,-0.08442401,-0.44652,-13.93,-4.2525,6.195
1105,4381832,0.680028,-0.05185,-0.46164799999999995,-14.1575,2.1875,5.81
1106,4381930,0.6877141,-0.020252000000000003,-0.449204,-13.545,4.13,6.2125
1107,4382028,0.7067460999999999,0.000732,-0.43859,-12.0575,3.99,6.4575
1108,4382126,0.7417600000000001,0.005368,-0.431148,-9.31,4.655,5.705
1109,4382224,0.768844,0.01708,-0.42468199999999995,-6.65,6.5625,3.9375
1110,4382322,0.769576,0.027327999999999998,-0.41358,-5.845,8.9075,0.6825
1111,4382420,0.755546,0.030622000000000003,-0.440054,-7.6125,11.445,-4.025
1112,4382517,0.733708,0.024034,-0.5410699999999999,-9.38,14.49,-9.8875
1113,4382615,0.741028,-0.014884,-0.73261,-6.685,19.46,-15.82
1114,4382713,0.7882421,-0.042578,-0.83875,3.22,25.585,-20.0725
1115,4382811,0.8360661,-0.04453,-0.8708360999999999,16.9225,33.565,-20.9125
1116,4382909,0.823622,0.026962,-0.889258,27.86,43.575,-19.88
1117,4383007,0.792146,0.12712400000000001,-0.876692,32.5675,49.9275,-19.6
1118,4383105,0.7500560000000001,0.12065799999999999,-0.9396440999999999,31.325,49.4725,-18.4975
1119,4383203,0.7451760000000001,0.09991799999999999,-0.903166,30.1875,39.3575,-16.555
1120,4383301,0.7451760000000001,0.10430999999999999,-0.8758381,25.9875,23.905,-15.4175
1121,4383398,0.7439560000000001,0.041602,-0.942572,17.255,8.75,-15.19
1122,4383496,0.78873,-0.040748,-0.987224,12.9675,-3.535,-15.19
1123,4383594,0.8855980999999999,-0.10797000000000001,-0.967216,12.5825,-9.31,-15.085
1124,4383692,0.9451341000000001,-0.155428,-0.934276,12.635,-8.365,-13.8775
1125,4383790,0.9413520000000001,-0.17324,-0.9051181,15.3125,-3.22,-13.5275
1126,4383888,0.910242,-0.176656,-0.904142,18.445,0.9275,-15.365
1127,4383986,0.88328,-0.16530999999999998,-0.903532,19.18,0.1925,-17.8675
1128,4384084,0.8638819999999999,-0.152988,-0.8764481,18.3925,-2.275,-20.1425
1129,4384181,0.8491200000000001,-0.132736,-0.8283799999999999,17.6575,-3.1675,-22.0675
1130,4384279,0.8239880999999999,-0.08601,-0.769332,16.6425,-3.7975,-23.765
1131,4384377,0.785924,-0.049166,-0.7333420999999999,14.91,-4.9,-24.7625
1132,4384475,0.7482261,-0.038064,-0.7093081,13.2825,-6.58,-24.7975
1133,4384573,0.7211420999999999,-0.043798000000000004,-0.6946681,11.4625,-9.345,-23.87
1134,4384671,0.7047939999999999,-0.042456,-0.6706340000000001,9.485,-13.02,-22.5575
1135,4384769,0.6960101,-0.024888,-0.636718,7.3675,-15.3825,-21.5775
1136,4384866,0.679662,-0.012444,-0.5987760999999999,6.4575,-16.555,-21.0175
1137,4384964,0.648552,-0.01586,-0.5703501,5.1975,-17.01,-19.81
1138,4385062,0.634156,-0.019764,-0.55937,2.2575,-17.0625,-18.5325
1139,4385160,0.6189060000000001,-0.012078,-0.553758,-1.12,-17.01,-17.465
1140,4385258,0.6157341,-0.00427,-0.550952,-3.36,-17.64,-17.395
1141,4385356,0.6224441,-0.008174001,-0.5479021,-4.1125,-18.025,-17.71
1142,4385453,0.633912,-0.0064659999999999995,-0.5463161,-4.585,-17.7275,-17.0275
1143,4385551,0.64904,0.010126000000000001,-0.5443640000000001,-5.5125,-16.765,-15.9775
1144,4385649,0.653432,0.009394,-0.5355800999999999,-5.2675,-15.435,-14.5075
1145,4385747,0.655384,0.010736,-0.535824,-4.7775,-14.2625,-12.32
1146,4385845,0.6633141,0.0034159999999999998,-0.532774,-4.7075,-14.4375,-9.7475
1147,4385943,0.6790520999999999,-0.004148001,-0.531066,-3.8675,-15.3475,-7.525
1148,4386041,0.693326,0.00305,-0.522282,-2.52,-15.7675,-6.335
1149,4386138,0.6985720999999999,0.013175999999999998,-0.51545,-0.875,-15.61,-5.7575
1150,4386236,0.7019880000000001,0.022692,-0.5161819999999999,0.2625,-15.8025,-4.9175
1151,4386334,0.704306,0.03294,-0.522404,1.3125,-16.485,-3.8675
1152,4386432,0.7139439999999999,0.050874,-0.525332,2.38,-16.9225,-2.7125
1153,4386530,0.727242,0.07112601,-0.523502,4.3925,-16.45,-1.7325
1154,4386628,0.738466,0.09211,-0.512034,7.4725,-14.91,-1.3475
1155,4386725,0.7345619999999999,0.112728,-0.5104479999999999,10.99,-11.7425,-1.575
1156,4386823,0.7387100000000001,0.121024,-0.49654,14.175,-7.42,-2.345
1157,4386921,0.737978,0.12248800000000001,-0.49141599999999996,16.8875,-2.205,-3.08
1158,4387019,0.7515201,0.13078399999999998,-0.494832,19.1275,3.29,-4.4625
1159,4387117,0.7823859999999999,0.146156,-0.49519799999999997,21.1225,7.9275,-6.5625
1160,4387215,0.8195960999999999,0.150304,-0.490684,22.4525,10.5875,-8.4175
1161,4387313,0.8540000000000001,0.130174,-0.484096,22.1375,10.36,-8.995
1162,4387410,0.8784,0.09223200000000001,-0.47458,20.79,8.05,-8.8375
1163,4387508,0.889502,0.06380599999999999,-0.472628,18.62,4.865,-9.6775
1164,4387606,0.9113399999999999,0.035136,-0.467992,15.4525,1.3475,-11.9175
1165,4387704,0.9232961,0.00305,-0.455182,11.935,-0.6825,-14.525
1166,4387802,0.9272,-0.009394,-0.441396,9.555,1.1725,-16.4325
1167,4387900,0.8963341,-0.017446,-0.487634,8.82,6.58,-15.82
1168,4387998,0.8425321,-0.013175999999999998,-0.6280560000000001,9.59,13.3175,-13.16
1169,4388095,0.8486319999999999,-0.018422,-0.721508,11.4625,17.8325,-11.4275
1170,4388193,0.8701040000000001,-0.037942000000000004,-0.7068681,11.9,20.9475,-11.3925
1171,4388291,0.7755541,-0.036844,-0.7937320999999999,8.05,24.43,-10.7975
1172,4388389,0.699792,-0.047702,-0.9049959999999999,0.035,22.7325,-11.06
1173,4388487,0.678686,-0.06039,-0.9929581000000001,-8.435,16.8525,-13.79
1174,4388585,0.6753920999999999,-0.09821001,-1.118496,-15.9075,8.645,-18.375
1175,4388682,0.7543261,-0.241194,-1.049688,-27.125,-1.47,-21.945
1176,4388780,0.766038,-0.46176999999999996,-0.733952,-35.28,3.4825,-20.895
1177,4388878,0.658068,-0.44554399999999994,-0.706136,-37.2925,13.965,-12.95
1178,4388976,0.5967021,-0.28853,-0.79361,-41.685,-0.6475,-7.8575
1179,4389074,0.6573359999999999,-0.08869401,-0.8930401,-41.545,-23.835,-7.105
1180,4389172,0.817522,0.082594,-0.942084,-35.56,-36.33,-7.49
1181,4389270,0.954284,0.15311,-0.8964561,-23.5375,-38.955,-5.7575
1182,4389367,1.028704,0.174704,-0.8258181,-15.12,-33.915,-0.2275
1183,4389465,1.00223,0.184098,-0.793488,-12.6875,-23.9575,7.0175
1184,4389563,0.8808401,0.15396400000000002,-0.8256960999999999,-12.8275,-17.85,11.34
1185,4389661,0.779824,0.082716,-0.8335040000000001,-10.2025,-19.705,10.0975
1186,4389759,0.722118,-0.036233999999999995,-0.8084939999999999,-4.06,-22.9775,7.4375
1187,4389857,0.734196,-0.116754,-0.779946,-0.21,-25.06,5.6875
1188,4389955,0.749934,-0.169214,-0.762378,-0.4725,-26.425,5.0575
1189,4390052,0.7394421,-0.200568,-0.7288279999999999,-2.835,-27.265,5.1275
1190,4390150,0.7217521,-0.20996199999999998,-0.696376,-6.1075,-27.0725,4.8125
1191,4390248,0.706136,-0.211548,-0.679906,-9.1,-27.125,5.1975
1192,4390346,0.683566,-0.191662,-0.6691699999999999,-10.3775,-29.3825,7.0175
1193,4390444,0.665876,-0.18422,-0.647576,-9.8,-33.215,10.4475
1194,4390542,0.64965,-0.170922,-0.626836,-9.0475,-36.2075,14.98
1195,4390639,0.652212,-0.154452,-0.616954,-8.4,-36.89,19.635
1196,4390737,0.666242,-0.148108,-0.6161,-8.295,-35.9275,24.0275
1197,4390835,0.6724640000000001,-0.14078800000000002,-0.612074,-8.9075,-35.28,28.21
1198,4390933,0.671244,-0.131638,-0.6049981,-9.6425,-35.2275,30.975
1199,4391031,0.664168,-0.116388,-0.5918220999999999,-10.8675,-35.84,32.4975
1200,4391129,0.6642899999999999,-0.107726,-0.580842,-12.3725,-35.8225,32.585
1201,4391227,0.6638021,-0.108702,-0.559126,-14.0875,-34.545,31.6925
1202,4391324,0.66063,-0.10906800000000001,-0.534116,-15.96,-31.85,30.3625
1203,4391422,0.666608,-0.10504200000000001,-0.515694,-17.8325,-27.9125,28.7
1204,4391520,0.677222,-0.10650599999999999,-0.50508,-20.2475,-23.5025,26.67
1205,4391618,0.6771,-0.109678,-0.49959,-22.995,-19.705,24.57
1206,4391716,0.6649,-0.11028800000000001,-0.48983000000000004,-26.215,-16.31,22.8375
1207,4391814,0.650138,-0.09845401,-0.48543800000000004,-30.135,-12.705,21.525
1208,4391912,0.6472100000000001,-0.08576601,-0.48836599999999997,-34.5275,-8.82,20.5625
1209,4392010,0.634156,-0.07600599999999999,-0.47275,-38.185,-5.81,19.915
1210,4392108,0.619516,-0.08344800000000001,-0.435906,-39.5675,-2.2575,19.81
1211,4392205,0.5958479999999999,-0.055022,-0.40833400000000003,-39.2875,2.7125,19.7575
1212,4392303,0.5958479999999999,-0.02745,-0.42931800000000003,-37.59,8.6975,19.1275
1213,4392401,0.602558,-0.01525,-0.43554,-34.3,12.215,18.5675
1214,4392499,0.6117081,0.008418,-0.410286,-31.675,12.8975,18.2875
1215,4392597,0.636596,0.035624,-0.393572,-28.945,14.665,17.815
1216,4392695,0.6581899999999999,0.07625,-0.362462,-26.32,18.69,16.0475
1217,4392793,0.655262,0.13480999999999999,-0.327448,-27.125,22.785,12.8975
1218,4392891,0.6466,0.163968,-0.326838,-30.625,27.195,7.9275
1219,4392989,0.6390359999999999,0.173362,-0.379786,-35.35,32.13,1.365
1220,4393087,0.624762,0.126636,-0.5753520000000001,-38.1325,36.4175,-4.8125
1221,4393184,0.7390760000000001,0.02196,-0.8609540999999999,-31.955,40.81,-9.205
1222,4393282,0.8331381,0.007686,-1.047126,-13.2825,45.01,-7.8925
1223,4393380,0.8927959999999999,-0.046116000000000004,-1.162782,9.4675,47.4075,-0.2975
1224,4393478,0.866078,0.138714,-1.16449,28.7175,46.9,7.8225
1225,4393576,0.8765700000000001,0.2989,-1.14619,38.255,43.1725,7.63
1226,4393674,0.874862,0.22862800000000003,-0.985516,49.63,37.905,2.9925
1227,4393772,0.829356,0.277916,-0.8847440999999999,47.5475,30.8525,-2.835
1228,4393870,0.8267940999999999,0.138226,-0.9239059999999999,34.825,19.285,-9.345
1229,4393968,0.8254520000000001,-0.060877999999999995,-0.96929,24.7625,3.7275,-12.8625
1230,4394066,0.8592460999999999,-0.234362,-0.9668501,20.825,-9.5025,-13.8775
1231,4394163,0.9211,-0.31451599999999996,-0.94916,20.86,-17.15,-13.4925
1232,4394261,0.969412,-0.281698,-0.94855,24.885,-16.4325,-14.735
1233,4394359,0.992348,-0.21081599999999998,-0.99369,29.96,-12.075,-17.0275
1234,4394457,0.9677040000000001,-0.122,-0.974292,30.7825,-12.1275,-17.7275
1235,4394555,0.8964561,-0.06539201,-0.8866961,27.2125,-15.295,-18.725
1236,4394653,0.833382,-0.048922,-0.818742,22.4,-15.0675,-21.5425
1237,4394751,0.8042239999999999,-0.039772,-0.783728,18.865,-11.9,-25.865
1238,4394849,0.7823859999999999,-0.034648000000000005,-0.7664041,16.9575,-8.9075,-30.0125
1239,4394947,0.7598161,-0.038918,-0.7473721,15.925,-7.7875,-31.7275
1240,4395044,0.727486,-0.04087,-0.721996,14.5775,-8.0325,-31.465
1241,4395142,0.68686,-0.052582000000000004,-0.68747,12.775,-9.8175,-30.52
1242,4395240,0.650016,-0.058803999999999995,-0.659532,10.045,-12.775,-29.715
1243,4395338,0.6186619999999999,-0.064538,-0.6359859999999999,6.405,-16.52,-28.945
1244,4395436,0.593042,-0.063318,-0.60268,3.4475,-20.2825,-27.8075
1245,4395534,0.58499,-0.059902,-0.5738880000000001,0.8225,-22.19,-26.0575
1246,4395632,0.585356,-0.060267999999999995,-0.55571,-1.4,-21.805,-23.555
1247,4395730,0.58499,-0.039162,-0.555222,-4.3575,-20.6325,-20.545
1248,4395828,0.588284,-0.027083999999999997,-0.55388,-6.6675,-19.5825,-17.395
1249,4395925,0.6007279999999999,-0.043798000000000004,-0.554002,-7.5425,-18.3925,-14.1225
1250,4396023,0.6128060000000001,-0.052703999999999994,-0.5579061,-7.49,-16.8875,-11.13
1251,4396121,0.63135,-0.069174,-0.563396,-6.5625,-16.065,-8.3125
1252,4396219,0.641232,-0.076738,-0.567178,-5.32,-15.9775,-5.845
1253,4396317,0.650748,-0.07234600000000001,-0.5694961,-4.165,-16.4325,-3.71
1254,4396415,0.66185,-0.057584,-0.5814520000000001,-3.2025,-17.2725,-1.9075
1255,4396513,0.681736,-0.042944,-0.5873079999999999,-1.925,-18.7775,-0.42
1256,4396611,0.697962,-0.026595999999999998,-0.582306,-0.49,-20.2825,0.735
1257,4396708,0.714066,0.0034159999999999998,-0.583404,0.7875,-20.8775,1.7325
1258,4396806,0.722362,0.030622000000000003,-0.582184,2.5025,-21.0175,2.87
1259,4396904,0.7317560000000001,0.054046000000000004,-0.58194,4.305,-20.7025,3.78
1260,4397002,0.734928,0.07442,-0.5697399999999999,6.4225,-19.1275,3.92
1261,4397100,0.736514,0.07637200000000001,-0.554856,9.0125,-16.1875,3.15
1262,4397198,0.7381001,0.07198,-0.542412,11.6025,-11.8475,1.68
1263,4397296,0.731634,0.070638,-0.540704,14.035,-7.105,-0.35
1264,4397394,0.7184581,0.079056,-0.546438,15.5925,-2.485,-2.4675
1265,4397492,0.712236,0.08698601,-0.546804,15.8025,1.8375,-5.18
1266,4397590,0.723338,0.098576,-0.555466,14.9275,6.0025,-8.33
1267,4397687,0.759572,0.09150001,-0.545096,13.475,8.6275,-10.815
1268,4397785,0.7869,0.09552601,-0.535824,11.41,9.0125,-11.515
1269,4397883,0.808372,0.09613601,-0.526674,8.4175,7.9975,-11.41
1270,4397981,0.8145941,0.077348,-0.5203300000000001,5.6,5.7925,-10.9025
1271,4398079,0.8141060999999999,0.046116000000000004,-0.5203300000000001,2.7125,3.2025,-10.465
1272,4398177,0.8176439999999999,0.007198,-0.527284,0.28,1.9075,-9.87
1273,4398275,0.8155701,-0.015372,-0.542778,-2.2225,1.995,-8.8375
1274,4398373,0.8099581,-0.03721,-0.62159,-4.7075,3.0275,-7.21
1275,4398471,0.8235001000000001,-0.06380599999999999,-0.729316,-6.93,4.9875,-5.3725
1276,4398568,0.8823040000000001,-0.12395199999999999,-0.742004,-8.12,7.735,-4.8125
1277,4398666,0.8775459999999999,-0.175924,-0.743224,-9.2225,11.8125,-4.515
1278,4398764,0.798978,-0.18483,-0.77104,-9.415,15.8725,-5.18
1279,4398862,0.744444,-0.14457,-0.8164239999999999,-10.5175,16.0125,-8.2075
1280,4398960,0.688934,-0.083936,-0.9195141,-11.375,10.9725,-11.445
1281,4399058,0.7117479999999999,-0.064782,-0.8809620000000001,-13.51,4.4975,-13.0375
1282,4399156,0.72956,-0.08503401,-0.742004,-16.1525,3.7975,-12.565
1283,4399254,0.657092,-0.08332601,-0.6972301,-16.065,6.755,-9.1175
1284,4399352,0.621346,-0.06380599999999999,-0.756034,-20.1425,3.045,-6.755
1285,4399450,0.640744,-0.05917000000000001,-0.795806,-20.895,-5.1625,-6.6675
1286,4399547,0.6972301,-0.051362,-0.8145941,-16.415,-14.2275,-6.615
1287,4399645,0.7834840000000001,-0.051118000000000004,-0.8015399999999999,-10.7275,-21.735,-7.0175
1288,4399743,0.8637601,-0.050752,-0.7775061,-5.5125,-23.66,-7.4725
1289,4399841,0.9208561,-0.036233999999999995,-0.771894,-2.2925,-21.035,-8.05
1290,4399939,0.9298841,-0.030012,-0.784704,-0.9975,-18.27,-9.1875
1291,4400037,0.8773021000000001,-0.031354,-0.7856801,0.28,-17.885,-9.9575
1292,4400135,0.80825,-0.04575,-0.775798,2.135,-18.0775,-9.87
1293,4400233,0.774822,-0.069052,-0.7612800999999999,5.005,-16.7125,-9.2925
1294,4400331,0.759572,-0.097722,-0.7435901,7.2275,-15.435,-8.1725
1295,4400428,0.750544,-0.11895,-0.7224841,8.365,-16.3625,-7.3325
1296,4400526,0.7387100000000001,-0.12761199999999998,-0.7019880000000001,9.275,-19.04,-7.5425
1297,4400624,0.7176041,-0.13359000000000001,-0.683932,10.8325,-22.82,-8.085
1298,4400722,0.7101621,-0.125538,-0.6734399999999999,12.32,-26.565,-8.6275
1299,4400820,0.70638,-0.10321199999999998,-0.6634359999999999,14.07,-29.505,-8.6275
1300,4400918,0.705892,-0.09698999999999999,-0.647454,16.03,-31.535,-7.9275
1301,4401016,0.702964,-0.082472,-0.630252,17.6225,-32.7425,-6.58
1302,4401114,0.7034521,-0.074664,-0.615246,19.0925,-33.0575,-5.7225
1303,4401212,0.6960101,-0.07442,-0.605608,20.685,-32.235,-5.1275
1304,4401309,0.687958,-0.071614,-0.601704,22.295,-31.1325,-5.1625
1305,4401407,0.6836880999999999,-0.07686,-0.58804,23.905,-30.0125,-6.055
1306,4401505,0.673928,-0.087474,-0.577548,24.0625,-29.3825,-7.21
1307,4401603,0.6736840000000001,-0.09125599999999999,-0.574986,23.065,-29.1725,-8.9075
1308,4401701,0.6832,-0.111996,-0.5655920999999999,21.7525,-28.8225,-11.305
1309,4401799,0.6856399999999999,-0.127368,-0.553636,20.0725,-28.7175,-13.4225
1310,4401897,0.6882020000000001,-0.143594,-0.5453399999999999,17.3775,-28.8575,-15.26
1311,4401995,0.6972301,-0.16909200000000002,-0.546682,15.26,-28.455,-16.6075
1312,4402092,0.7088201,-0.197152,-0.54778,13.5975,-27.93,-17.4125
1313,4402190,0.7165060000000001,-0.218746,-0.5441199999999999,11.935,-27.37,-17.43
1314,4402288,0.72224,-0.230336,-0.528016,10.255,-26.355,-16.9225
1315,4402386,0.7237041,-0.237656,-0.514108,7.77,-24.78,-16.275
1316,4402484,0.713212,-0.248148,-0.5091061,5.04,-22.7675,-15.295
1317,4402582,0.6993041,-0.24192600000000003,-0.49263599999999996,2.59,-20.7375,-14.1225
1318,4402680,0.6939361,-0.215452,-0.48433999999999994,-0.2975,-17.7625,-12.775
1319,4402778,0.703696,-0.187636,-0.471408,-3.0625,-13.9125,-11.655
1320,4402875,0.69235,-0.165676,-0.462258,-5.845,-9.6075,-10.185
1321,4402973,0.687348,-0.13237000000000002,-0.4453,-7.9275,-4.5675,-9.1
1322,4403071,0.679784,-0.10089400000000001,-0.43334399999999995,-9.3975,0.9975,-8.155
1323,4403169,0.679296,-0.081984,-0.40979799999999994,-9.8175,5.565,-7.9625
1324,4403267,0.6794180000000001,-0.058316,-0.380152,-9.38,9.87,-8.225
1325,4403365,0.664778,-0.038551999999999996,-0.35319,-9.87,13.4925,-9.6075
1326,4403463,0.64599,-0.019764,-0.324154,-12.7225,16.2225,-12.845
1327,4403561,0.646844,-0.013663999999999999,-0.294508,-17.5525,19.3375,-17.815
1328,4403659,0.636108,-0.027694,-0.33671999999999996,-23.555,22.995,-23.2575
1329,4403756,0.638548,-0.047945999999999996,-0.488854,-26.985,27.8425,-28.6475
1330,4403854,0.6645340000000001,-0.123464,-0.7937320999999999,-22.2425,32.935,-33.215
1331,4403952,0.76555,-0.149816,-0.9741700000000001,-5.075,39.025,-35.245
1332,4404050,0.8015399999999999,-0.158722,-1.128866,17.6925,43.855,-32.305
1333,4404148,0.81679,-0.04697001,-1.226344,37.5025,48.7375,-26.6525
1334,4404246,0.84241,0.190564,-1.120326,50.3475,53.1125,-24.395
1335,4404344,0.7882421,0.387716,-0.9107301,50.0325,58.7125,-24.675
1336,4404442,0.7518859999999999,0.370636,-0.9580661,39.025,58.8,-26.495
1337,4404540,0.814472,0.24522,-0.9812460999999999,33.2675,39.305,-27.265
1338,4404638,0.760914,0.15189,-0.925126,24.3075,7.0175,-26.18
1339,4404735,0.7672581,-0.009516001,-0.9269561,15.995,-17.955,-26.9325
1340,4404833,0.8632719999999999,-0.132736,-0.9557479999999999,16.6775,-25.2875,-29.12
1341,4404931,0.931958,-0.17543599999999998,-0.9524540000000001,20.3175,-19.1625,-31.08
1342,4405029,0.9718521000000001,-0.17812,-0.9469641,25.5675,-8.7325,-33.7225
1343,4405127,0.9392780000000001,-0.159088,-0.943426,28.525,-3.955,-36.575
1344,4405225,0.8559521000000001,-0.133712,-0.8885261000000001,28.9975,-6.405,-39.5675
1345,4405323,0.814472,-0.11834000000000001,-0.8376520000000001,27.055,-6.405,-41.055
1346,4405421,0.8166680000000001,-0.086132,-0.8206940999999999,24.0625,-3.3425,-41.1775
1347,4405518,0.8197180000000001,-0.05624199999999999,-0.805078,23.625,-1.9425,-42.1575
1348,4405616,0.81618,-0.039284,-0.797636,24.8675,-1.96,-42.28
1349,4405714,0.803126,-0.031354,-0.794586,25.0075,-2.7475,-40.7925
1350,4405812,0.779458,-0.025863999999999998,-0.7766521,23.94,-5.495,-38.5175
1351,4405910,0.747128,-0.022692,-0.7394421,22.2425,-10.2375,-35.595
1352,4406008,0.709796,-0.018666,-0.69662,19.7925,-15.4175,-33.075
1353,4406106,0.6767340000000001,-0.03355,-0.658922,17.6225,-19.7225,-31.255
1354,4406204,0.645868,-0.047214,-0.6292760000000001,15.68,-21.9275,-29.785
1355,4406302,0.6240300999999999,-0.0427,-0.607316,13.09,-22.3825,-28.7525
1356,4406400,0.60573,-0.036966000000000006,-0.589626,10.5525,-21.49,-27.825
1357,4406497,0.600484,-0.02928,-0.5785241,7.735,-19.53,-26.355
1358,4406595,0.606584,-0.020618,-0.5777920999999999,4.865,-17.22,-24.0275
1359,4406693,0.619638,-0.019398,-0.57462,2.695,-15.7325,-21.0175
1360,4406791,0.6298861,-0.012931999999999999,-0.57462,1.3825,-15.155,-18.305
1361,4406889,0.634644,-0.011590000000000001,-0.5777920999999999,0.98,-15.05,-16.0475
1362,4406987,0.640012,-0.006587999999999999,-0.58255,1.855,-15.0325,-14.3675
1363,4407085,0.645746,0.010248,-0.5918220999999999,3.5175,-15.19,-13.65
1364,4407183,0.6545300000000001,0.030012,-0.590236,5.67,-15.96,-13.51
1365,4407281,0.66368,0.05563200000000001,-0.590236,7.9975,-16.6075,-13.5275
1366,4407378,0.674538,0.07112601,-0.583404,10.2375,-16.73,-13.7725
1367,4407476,0.683322,0.09028,-0.5669341,12.7925,-16.065,-14.4025
1368,4407574,0.679662,0.10736,-0.55815,15.5225,-14.6475,-15.365
1369,4407672,0.6724640000000001,0.11138599999999999,-0.55632,17.7625,-13.9125,-15.82
1370,4407770,0.671976,0.117974,-0.556808,19.355,-13.545,-16.3975
1371,4407868,0.684542,0.120048,-0.554246,21.63,-11.9875,-17.815
1372,4407966,0.702354,0.117486,-0.548146,24.3775,-9.3275,-19.495
1373,4408064,0.71675,0.116632,-0.546072,27.16,-7.0525,-20.475
1374,4408162,0.730414,0.11394800000000001,-0.552294,29.6975,-5.2675,-20.895
1375,4408260,0.737246,0.114558,-0.552416,32.2175,-3.3425,-21.1225
1376,4408358,0.742858,0.10906800000000001,-0.5314321,35.0525,-0.7525,-21.3325
1377,4408455,0.743346,0.101992,-0.529968,37.6775,2.31,-21.4025
1378,4408553,0.7478600000000001,0.1037,-0.532896,38.78,3.92,-21.8575
1379,4408651,0.7537159999999999,0.08003201,-0.5103260000000001,37.17,4.2175,-22.715
1380,4408749,0.747738,0.065026,-0.503372,35.2625,4.8125,-22.435
1381,4408847,0.756644,0.067588,-0.5091061,33.985,6.02,-22.5225
1382,4408945,0.77653,0.06527000000000001,-0.504104,32.445,6.44,-23.345
1383,4409043,0.794586,0.053314,-0.499224,31.115,5.95,-24.0625
1384,4409141,0.817156,0.030133999999999998,-0.50264,30.135,6.405,-24.85
1385,4409239,0.8377741,0.023058000000000002,-0.507642,29.0325,7.4725,-26.075
1386,4409337,0.8499741,0.02501,-0.50508,27.79,8.4875,-28.14
1387,4409435,0.8527800999999999,0.028669999999999998,-0.495442,26.74,9.5025,-30.6425
1388,4409532,0.856196,0.034282,-0.471896,26.075,11.4275,-33.0575
1389,4409630,0.84729,0.046726,-0.468846,25.1475,13.965,-34.7375
1390,4409728,0.8271601000000001,0.058803999999999995,-0.5429,23.905,15.8025,-35.9275
1391,4409826,0.83021,0.038308,-0.642452,22.2425,14.9975,-37.1
1392,4409924,0.882182,-0.007320001,-0.62708,21.2625,13.545,-38.15
1393,4410022,0.9219540999999999,-0.059536,-0.609146,21.735,15.5225,-36.68
1394,4410120,0.9002379999999999,-0.064172,-0.73261,20.51,20.4225,-33.635
1395,4410218,0.8874280999999999,-0.056729999999999996,-0.8602221,13.265,19.3725,-33.215
1396,4410316,0.8744960999999999,-0.059536,-0.89487,5.145,11.69,-33.565
1397,4410414,0.8574161,-0.107848,-0.8277700000000001,0.875,6.58,-32.0775
1398,4410511,0.8222799999999999,-0.14493599999999998,-0.8834021000000001,-1.05,9.6425,-29.8025
1399,4410609,0.8235001000000001,-0.17873,-0.927322,-5.5125,8.645,-29.645
1400,4410707,0.8342360000000001,-0.232654,-0.8486319999999999,-12.5825,1.4,-29.3825
1401,4410805,0.7510321,-0.233386,-0.762378,-13.0025,-1.4875,-26.4425
1402,4410903,0.681248,-0.151036,-0.807396,-13.755,-6.44,-22.1725
1403,4411001,0.678442,-0.044286,-0.8815719999999999,-13.7375,-16.5025,-20.7725
1404,4411099,0.7565221,0.02806,-0.8827921000000001,-8.085,-23.345,-21.1925
1405,4411197,0.81435,0.071614,-0.8597341000000001,-0.2625,-23.9575,-20.405
1406,4411295,0.862174,0.08235001,-0.841556,5.18,-22.155,-18.585
1407,4411393,0.8546101,0.06539201,-0.841556,7.455,-19.53,-17.3425
1408,4411490,0.8045899999999999,0.032086,-0.8735200000000001,8.4,-19.2675,-17.8325
1409,4411587,0.766282,-0.000366,-0.8818159999999999,10.395,-22.435,-19.67
1410,4411685,0.742492,0.002684,-0.850218,14.735,-24.955,-21.42
1411,4411782,0.7259001,0.02928,-0.8117880000000001,19.4775,-25.4275,-21.9275
1412,4411880,0.715896,0.04087,-0.780434,22.155,-26.46,-21.1925
1413,4411978,0.68686,0.023790000000000002,-0.744566,22.26,-28.945,-19.32
1414,4412076,0.660142,-0.008662000999999999,-0.710284,21.8575,-30.87,-17.0275
1415,4412174,0.6411100000000001,-0.05563200000000001,-0.6791739999999999,21.9625,-31.4125,-15.4875
1416,4412272,0.6206141,-0.098576,-0.65514,23.065,-31.5875,-13.895
1417,4412370,0.614758,-0.123464,-0.63745,25.5675,-31.15,-13.0375
1418,4412468,0.61366,-0.12383,-0.632814,28.5425,-30.5025,-12.6
1419,4412566,0.6252501,-0.12053599999999999,-0.636474,31.4475,-30.4675,-12.46
1420,4412664,0.637938,-0.108458,-0.6381821,33.46,-30.45,-12.25
1421,4412761,0.650626,-0.095648,-0.6273241,33.2325,-30.0125,-11.725
1422,4412859,0.658068,-0.069662,-0.620004,30.7825,-28.7875,-11.445
1423,4412957,0.65941,-0.051362,-0.6262260000000001,28.1225,-28.595,-11.375
1424,4413055,0.6517241,-0.043798000000000004,-0.624884,27.2825,-29.3125,-12.18
1425,4413153,0.6517241,-0.042334,-0.6109760000000001,26.705,-29.8725,-13.7025
1426,4413251,0.6586781,-0.043188,-0.6037779999999999,25.585,-29.3125,-15.4525
1427,4413349,0.66856,-0.047092,-0.6010939999999999,23.975,-28.175,-16.8525
1428,4413447,0.68015,-0.05843801,-0.599508,22.365,-26.7925,-18.55
1429,4413545,0.688812,-0.07417601,-0.60024,20.545,-24.7275,-19.705
1430,4413643,0.694058,-0.085156,-0.60512,18.9,-22.61,-20.02
1431,4413740,0.6944241,-0.100772,-0.61366,16.8,-21.3675,-19.775
1432,4413838,0.69296,-0.111142,-0.6189060000000001,14.735,-21.035,-18.935
1433,4413936,0.695034,-0.116022,-0.6131721,12.8275,-20.615,-17.7625
1434,4414034,0.6986939999999999,-0.113826,-0.6039,10.7975,-19.95,-16.3975
1435,4414132,0.698816,-0.11016600000000001,-0.593774,8.6975,-19.7225,-14.98
1436,4414230,0.7015,-0.11345999999999999,-0.582306,7.175,-19.075,-13.8075
1437,4414328,0.6989380000000001,-0.105774,-0.576328,6.3175,-17.5,-12.915
1438,4414426,0.7007680000000001,-0.103578,-0.560102,4.97,-15.1375,-12.7575
1439,4414524,0.6972301,-0.098088,-0.545096,2.9575,-11.865,-12.95
1440,4414621,0.68198,-0.07612801,-0.526918,0.315,-7.8575,-13.5625
1441,4414719,0.678076,-0.051362,-0.506178,-1.68,-3.955,-14.315
1442,4414817,0.678808,-0.012078,-0.48165600000000003,-4.4275,-0.6825,-15.1725
1443,4414915,0.661972,0.020496,-0.447618,-7.56,2.1,-15.785
1444,4415013,0.635498,0.041114,-0.42138809999999993,-10.15,5.355,-17.3075
1445,4415111,0.618174,0.04514,-0.40504,-12.0225,9.135,-19.95
1446,4415209,0.6080479999999999,0.050142,-0.41297,-15.2075,11.865,-23.1175
1447,4415307,0.6058520000000001,0.038796,-0.43651599999999996,-19.0925,13.545,-26.5825
1448,4415405,0.5787680000000001,0.0035380000000000003,-0.57096,-21.21,16.0475,-30.59
1449,4415503,0.6178081,-0.097966,-0.85949,-16.345,21.84,-35.7875
1450,4415600,0.7510321,-0.119926,-0.9895421,-1.855,29.54,-40.32
1451,4415698,0.789706,-0.048068,-0.9980821,15.015,37.6425,-39.305
1452,4415796,0.7116260999999999,0.033428,-1.017724,30.2575,50.7675,-35.84
1453,4415894,0.71248,0.15701400000000001,-0.916952,43.015,60.1825,-36.015
1454,4415992,0.699914,0.296094,-0.765062,43.5575,57.1025,-36.05
1455,4416090,0.665266,0.213256,-0.740296,32.8825,44.0825,-34.9125
1456,4416188,0.687958,0.104066,-0.822768,21.49,23.59,-34.0025
1457,4416286,0.7300479999999999,-0.004514,-0.8823040000000001,14.7525,2.8,-31.92
1458,4416384,0.796294,-0.08869401,-0.8964561,12.3725,-9.135,-29.3475
1459,4416482,0.8497299999999999,-0.09540401,-0.873764,14.6825,-10.185,-27.65
1460,4416580,0.8648581,-0.043798000000000004,-0.8521700999999999,24.0625,-5.5825,-27.51
1461,4416677,0.850218,0.015738,-0.8703481,31.3425,-1.5925,-29.1375
1462,4416775,0.8219139999999999,0.045872,-0.879864,33.18,-2.0475,-31.2025
1463,4416873,0.8141060999999999,0.046726,-0.846924,31.9025,-5.5125,-32.7075
1464,4416971,0.8285021,0.043676,-0.8084939999999999,29.365,-8.4175,-33.495
1465,4417069,0.85888,0.040992,-0.784094,30.065,-7.5075,-36.1375
1466,4417167,0.87169,0.047945999999999996,-0.769942,35.8575,-2.765,-41.65
1467,4417265,0.8536341000000001,0.063928,-0.779458,42.7875,1.1725,-47.9325
1468,4417363,0.808738,0.07246799999999999,-0.785558,47.495,0.98,-52.4825
1469,4417461,0.763598,0.086132,-0.781166,48.685,-1.9775,-54.46
1470,4417559,0.7421260000000001,0.09991799999999999,-0.7686,46.795,-6.23,-54.7925
1471,4417657,0.732854,0.090036,-0.745908,44.345,-11.48,-54.39
1472,4417754,0.73505,0.076738,-0.71797,43.1025,-15.3825,-54.2675
1473,4417852,0.73261,0.07002799999999999,-0.6878361,43.7325,-16.8875,-55.125
1474,4417950,0.721508,0.064294,-0.671244,45.5175,-17.2025,-56.14
1475,4418048,0.699792,0.06746601,-0.656482,47.4775,-15.96,-56.9275
1476,4418146,0.683566,0.075396,-0.648796,49.3325,-13.6325,-57.8025
1477,4418244,0.675758,0.08637601,-0.640622,50.8725,-11.6025,-58.3625
1478,4418342,0.6763680000000001,0.09089001,-0.633668,51.835,-10.92,-58.275
1479,4418440,0.681492,0.09223200000000001,-0.6263479999999999,52.5875,-11.2,-58.0125
1480,4418538,0.681126,0.09052401,-0.6201260000000001,53.4975,-11.7775,-57.855
1481,4418636,0.6823461,0.08503401,-0.61732,54.6875,-12.425,-57.925
1482,4418734,0.68381,0.07625,-0.615368,56.2975,-12.0575,-58.52
1483,4418832,0.6824680000000001,0.06539201,-0.615246,58.2575,-11.27,-59.6225
1484,4418930,0.6851520999999999,0.06405001,-0.6150021,60.3575,-10.7975,-60.8475
1485,4419027,0.684176,0.059658,-0.60878,62.335,-10.675,-61.845
1486,4419125,0.6851520999999999,0.061975999999999996,-0.609146,64.12,-10.5875,-62.58
1487,4419223,0.69052,0.06832001,-0.616222,65.835,-10.7625,-63.21
1488,4419321,0.691008,0.073688,-0.6150021,67.4275,-11.235,-63.4725
1489,4419419,0.693448,0.072712,-0.618052,68.5475,-11.5325,-63.245
1490,4419517,0.6977180000000001,0.069784,-0.619394,69.475,-11.83,-62.895
1491,4419615,0.705282,0.06771001,-0.6156119999999999,70.6125,-11.795,-62.825
1492,4419713,0.710284,0.056974000000000004,-0.619516,72.38,-11.935,-62.755
1493,4419811,0.716018,0.049532,-0.6228100000000001,73.99,-12.5825,-62.405
1494,4419909,0.725534,0.04453,-0.6197600000000001,75.6175,-12.8275,-62.1775
1495,4420007,0.73505,0.044896,-0.6124400999999999,77.315,-12.145,-61.775
1496,4420105,0.7391979999999999,0.05160601,-0.610122,78.855,-11.1475,-61.4775
1497,4420203,0.7409060000000001,0.05453401,-0.6076819999999999,79.485,-10.7275,-61.3025
1498,4420300,0.74054,0.052948,-0.5975560000000001,78.785,-11.305,-60.7075
1499,4420398,0.736758,0.04697001,-0.599142,78.12,-12.2325,-59.9025
1500,4420496,0.74298,0.05063,-0.597312,77.455,-12.775,-59.3775
1501,4420594,0.74847,0.05246,-0.593042,76.37001,-12.3375,-59.045
1502,4420692,0.7518859999999999,0.052948,-0.582916,75.7925,-11.235,-58.275
1503,4420790,0.749568,0.061488,-0.5826720000000001,74.7075,-10.395,-57.365
1504,4420888,0.748104,0.048312,-0.583404,72.975,-10.2375,-56.4375
1505,4420986,0.751276,0.026962,-0.5885281,70.945,-9.2225,-56.245
1506,4421084,0.755546,0.008174001,-0.590724,68.6,-7.4375,-56.735
1507,4421182,0.7540819999999999,-0.004514,-0.593286,65.765,-6.58,-56.9275
1508,4421280,0.762012,-0.011224,-0.5897479999999999,62.51,-5.6525,-57.26
1509,4421377,0.7705521,-0.002562,-0.6039,59.0975,-4.6725,-57.75
1510,4421475,0.7740901,-0.00488,-0.583648,55.6325,-5.6,-58.0475
1511,4421573,0.7787261,-0.001586,-0.59353,52.6575,-6.3875,-57.82
1512,4421671,0.784338,-0.010004,-0.613294,50.575,-7.1575,-58.0825
1513,4421769,0.8045899999999999,-0.041358,-0.584014,49.525,-6.335,-58.9225
1514,4421867,0.792512,-0.061,-0.547048,50.6975,-2.415,-59.605
1515,4421965,0.74054,-0.04941,-0.5627861,53.97,-0.14,-60.725
1516,4422063,0.6977180000000001,-0.031476,-0.620858,56.28,-0.1575,-62.44
1517,4422161,0.688812,-0.030744,-0.6828341,58.135,-0.77,-64.41751
1518,4422259,0.6956439999999999,-0.06356201,-0.73139,61.1275,-1.54,-66.2025
1519,4422356,0.679662,-0.068686,-0.965752,63.8925,-1.7325,-67.76
1520,4422454,0.783728,-0.156526,-1.109956,61.4075,-3.535,-72.205
1521,4422552,0.989176,-0.27510999999999997,-1.039318,55.125,-1.995,-77.945
1522,4422650,1.0025959999999998,-0.309514,-0.8106899999999999,54.7925,6.7025,-81.81251
1523,4422748,0.795562,-0.21289,-0.7093081,54.075,13.5975,-80.675
1524,4422846,0.620858,-0.06270801,-0.777018,49.7,6.1775,-77.6125
1525,4422944,0.530212,0.016836,-0.8443620999999999,47.3725,-8.6625,-74.515
1526,4423042,0.534848,0.030256,-0.873276,47.95,-23.3275,-70.9625
1527,4423140,0.610122,-0.000976,-0.831308,51.275,-35.8575,-67.935
1528,4423238,0.695156,-0.0366,-0.765794,54.425,-40.7575,-65.1175
1529,4423336,0.754692,-0.0549,-0.757376,54.04,-38.325,-63.7875
1530,4423433,0.761646,-0.067344,-0.8317960999999999,54.6875,-33.6525,-65.835
1531,4423531,0.734928,-0.083204,-0.882182,59.15,-30.695,-71.085
1532,4423629,0.71919,-0.083814,-0.8586360000000001,65.8525,-28.245,-76.265
1533,4423727,0.701134,-0.058316,-0.808982,71.12,-26.5125,-78.9425
1534,4423825,0.689056,-0.050142,-0.769698,75.1275,-24.8675,-79.59000999999999
1535,4423923,0.6832,-0.06283,-0.7401741,77.8575,-23.1875,-78.7325
1536,4424021,0.671488,-0.078202,-0.704062,78.505,-22.47,-76.8775
1537,4424119,0.6563601,-0.09930800000000001,-0.6825899999999999,77.7525,-22.9425,-75.0925
1538,4424217,0.636474,-0.127978,-0.6791739999999999,77.35,-23.975,-73.745
1539,4424315,0.62769,-0.144204,-0.6864941,78.55751,-25.7075,-72.9575
1540,4424412,0.630984,-0.146156,-0.680516,80.5525,-27.44,-72.87
1541,4424510,0.639524,-0.138104,-0.6686821,82.285,-28.5075,-72.8175
1542,4424608,0.64782,-0.11955999999999999,-0.6600201,83.0375,-28.875,-72.275
1543,4424706,0.656238,-0.103334,-0.657092,82.2325,-28.805,-72.2575
1544,4424804,0.664046,-0.07856801,-0.650138,80.64,-28.665,-72.6075
1545,4424902,0.672708,-0.06941801,-0.647454,78.6625,-28.1925,-73.78
1546,4425000,0.67405,-0.077592,-0.655384,76.86,-28.35,-75.145
1547,4425098,0.670268,-0.09552601,-0.6661201,75.4425,-28.7175,-76.9125
1548,4425196,0.677832,-0.122,-0.667706,74.8475,-29.2075,-78.82
1549,4425294,0.68808,-0.151036,-0.662826,74.18251,-29.3825,-80.7975
1550,4425392,0.696132,-0.1769,-0.6530661,72.905,-29.225,-82.2675
1551,4425489,0.6994260999999999,-0.207644,-0.6392800000000001,70.77,-28.63,-83.125
1552,4425587,0.6972301,-0.22801799999999997,-0.624884,68.11,-26.845,-82.95
1553,4425685,0.695766,-0.242048,-0.622078,64.0325,-24.955,-81.11251
1554,4425783,0.696132,-0.257298,-0.6095119999999999,59.3775,-23.135,-77.84
1555,4425881,0.7015,-0.271206,-0.59292,54.5475,-21.175,-73.4825
1556,4425979,0.7046720999999999,-0.27694,-0.582306,48.86,-19.075,-68.2675
1557,4426077,0.705404,-0.28694400000000003,-0.58316,42.77,-17.395,-62.5625
1558,4426175,0.703574,-0.288042,-0.580476,37.03,-16.1175,-56.63
1559,4426273,0.705038,-0.28486999999999996,-0.5702281,31.85,-14.7,-50.75
1560,4426371,0.71797,-0.271206,-0.5535140000000001,26.6875,-12.6875,-45.5
1561,4426468,0.7250460999999999,-0.263154,-0.54778,21.5425,-9.835,-41.685
1562,4426566,0.723094,-0.25363800000000003,-0.549854,16.8875,-8.085,-38.815
1563,4426664,0.7250460999999999,-0.23546,-0.5532701,12.985,-7.0875,-37.1525
1564,4426762,0.7269979999999999,-0.20996199999999998,-0.542534,10.15,-5.7575,-37.415
1565,4426860,0.721508,-0.17543599999999998,-0.5453399999999999,7.5775,-3.535,-38.6575
1566,4426958,0.7269979999999999,-0.153476,-0.539362,6.3875,0.2975,-40.6525
1567,4427056,0.726144,-0.123708,-0.5479021,5.9675,4.69,-42.9975
1568,4427154,0.731634,-0.09930800000000001,-0.56852,7.2275,9.205,-45.7975
1569,4427252,0.743834,-0.0793,-0.58743,11.2175,13.4575,-49.3325
1570,4427350,0.746152,-0.06124401,-0.628178,15.75,17.7975,-52.85
1571,4427447,0.7589621,-0.042334,-0.66551,22.155,21.805,-56.77
1572,4427545,0.7452979999999999,-0.016347999999999998,-0.7407841,29.75,24.6225,-61.3025
1573,4427643,0.726876,0.004514,-0.853512,37.7125,28.035,-66.5525
1574,4427741,0.808982,0.030744,-0.8010520000000001,46.9875,33.4775,-72.1
1575,4427839,0.8459479999999999,0.060512,-0.680028,53.5675,42.1575,-74.515
1576,4427937,0.806542,0.049166,-0.688934,57.015,51.2925,-75.495
1577,4428035,0.796416,0.014396,-0.7732359999999999,61.1275,50.4875,-77.8925
1578,4428133,0.785192,-0.039162,-0.8574161,63.14,41.0375,-78.48751
1579,4428231,0.763354,-0.08466801,-0.8409459999999999,62.3875,31.675,-76.755
1580,4428329,0.709674,-0.137982,-0.84241,58.275,29.505,-73.4125
1581,4428426,0.683566,-0.18751400000000001,-0.874252,56.49,31.605,-70.595
1582,4428524,0.68076,-0.19642,-0.918294,55.72,32.935,-68.1275
1583,4428622,0.666852,-0.2013,-0.9293961,53.1125,30.38,-64.295
1584,4428720,0.655384,-0.18178,-0.917074,50.75,25.375,-59.955
1585,4428818,0.664778,-0.14469200000000002,-0.9023121,50.3475,19.81,-56.875
1586,4428916,0.691008,-0.11773,-0.8746181000000001,50.6975,13.1075,-54.74
1587,4429014,0.7260220000000001,-0.087474,-0.845582,50.05,6.8075,-53.2
1588,4429112,0.755424,-0.042822000000000006,-0.8414341000000001,49.6825,1.89,-52.7275
1589,4429210,0.7861680999999999,-0.013541999999999998,-0.8411900999999999,50.75,-2.5725,-53.41
1590,4429307,0.784582,0.006587999999999999,-0.8086161000000001,51.8875,-7.245,-55.125
1591,4429405,0.745542,0.01647,-0.768844,52.92,-10.3425,-57.925
1592,4429503,0.6980841,0.011468,-0.752008,53.9,-10.815,-61.46
1593,4429601,0.665876,0.004636001,-0.745054,54.635,-10.01,-65.1875
1594,4429699,0.6558721,0.015738,-0.73383,53.935,-8.6975,-68.67
1595,4429797,0.6586781,0.031232,-0.724924,52.8325,-7.665,-71.05
1596,4429895,0.665632,0.041846,-0.71614,52.43,-7.4725,-72.625
1597,4429993,0.66978,0.055754,-0.7086979999999999,52.22,-7.4375,-73.5
1598,4430091,0.6695361,0.063318,-0.702598,52.675,-7.7175,-74.13
1599,4430189,0.659654,0.069906,-0.7004020000000001,54.1625,-8.54,-74.725
1600,4430286,0.6480640000000001,0.07112601,-0.69784,55.93,-9.87,-75.4775
1601,4430384,0.637694,0.04819,-0.693814,57.9775,-12.215,-76.265
1602,4430482,0.6439159999999999,0.035258,-0.6960101,59.815,-14.385,-77.3675
1603,4430580,0.655384,0.035258,-0.690642,61.355,-15.855,-79.2575
1604,4430678,0.6733180000000001,0.03599,-0.6821020000000001,62.5975,-16.4675,-80.78
1605,4430776,0.687592,0.050874,-0.673928,63.665,-16.765,-80.99
1606,4430874,0.6954,0.063196,-0.668072,63.9975,-17.465,-80.185
1607,4430972,0.7105279999999999,0.053436000000000004,-0.652822,64.5575,-18.2175,-78.62751
1608,4431070,0.706624,0.060512,-0.6362300000000001,66.5525,-17.5,-78.2075
1609,4431167,0.701012,0.055510000000000004,-0.5857220000000001,70.0,-16.45,-78.575
1610,4431265,0.673562,0.0427,-0.6049981,72.275,-15.6625,-78.9075
1611,4431363,0.6707561,0.047214,-0.59963,75.1975,-15.89,-79.5025
1612,4431461,0.6767340000000001,0.041236,-0.59902,76.685,-17.5525,-80.15
1613,4431559,0.684054,0.020618,-0.607804,75.04,-19.32,-80.7975
1614,4431657,0.7004020000000001,-0.00427,-0.599264,73.29,-19.5475,-81.2175
1615,4431755,0.7278521,-0.025986000000000002,-0.58499,72.24,-17.535,-81.25251
1616,4431853,0.74298,-0.03538,-0.57157,71.2075,-14.945,-81.025
1617,4431951,0.7592061,-0.042822000000000006,-0.56242,69.8425,-12.67,-80.6225
1618,4432049,0.763476,-0.05856,-0.54778,68.5475,-10.3075,-79.03
1619,4432147,0.7605481,-0.090036,-0.539484,66.8325,-6.7725,-75.8975
1620,4432244,0.7564001,-0.11919400000000001,-0.522648,64.26,-3.1325,-71.99501
1621,4432342,0.7537159999999999,-0.140422,-0.509472,61.5825,-1.2075,-67.83
1622,4432440,0.7515201,-0.149694,-0.48861000000000004,59.92,-0.2975,-63.4375
1623,4432538,0.736392,-0.131882,-0.515694,59.4125,0.805,-59.71
1624,4432636,0.732854,-0.125416,-0.487756,57.225,1.4875,-57.365
1625,4432734,0.70943,-0.100284,-0.45298599999999994,56.8925,5.18,-55.2825
1626,4432832,0.6946681,-0.065026,-0.444446,57.4,11.1125,-53.9175
1627,4432930,0.702598,-0.04514,-0.45603599999999994,56.91,15.715,-52.465
1628,4433028,0.7306581,-0.02745,-0.45811,56.0875,19.845,-51.3275
1629,4433126,0.759572,-0.008418,-0.46164799999999995,55.545,23.24,-50.1375
1630,4433223,0.78751,-0.000732,-0.465308,54.11,25.13,-48.3875
1631,4433321,0.8113001,0.006344,-0.459086,52.01,25.7075,-46.025
1632,4433419,0.8296,0.01281,-0.47909399999999996,49.805,25.445,-42.8575
1633,4433517,0.852902,-0.014762,-0.503616,48.3525,25.795,-39.7425
1634,4433615,0.8526581,-0.025254,-0.592188,47.95,27.5975,-36.365
1635,4433713,0.8203280000000001,-0.056608000000000006,-0.7986121,45.85,29.855,-33.7925
1636,4433811,0.9087780000000001,-0.132858,-0.815326,41.09,32.3575,-33.67
1637,4433909,0.9711200999999999,-0.23546,-0.862174,30.94,37.9575,-31.78
1638,4434007,0.9340321,-0.335744,-0.9146340000000001,18.0075,44.94,-27.055
1639,4434104,0.8664440000000001,-0.349286,-0.9085340000000001,4.865,48.58,-25.165
1640,4434202,0.738344,-0.303048,-0.957944,-3.92,46.2875,-27.86
1641,4434300,0.6569699999999999,-0.261934,-1.006256,-8.995,35.6825,-30.625
1642,4434398,0.69296,-0.211182,-0.938058,-16.205,23.1525,-29.6625
1643,4434496,0.6707561,-0.15237799999999999,-0.8694940999999999,-15.3825,18.3225,-24.7625
1644,4434594,0.652334,-0.063074,-0.9337880999999999,-16.1175,12.215,-17.605
1645,4434692,0.704306,0.023668,-0.9751460999999999,-20.055,5.0925,-12.8275
1646,4434790,0.767502,0.07625,-0.967094,-17.3425,0.945,-9.8525
1647,4434888,0.8182541,0.072712,-0.9415959999999999,-10.745,-4.1825,-7.9975
1648,4434985,0.8270379999999999,0.06539201,-0.9168301,-4.9175,-9.5025,-6.545
1649,4435083,0.815448,0.06575800000000001,-0.9037761000000001,1.4525,-11.305,-6.825
1650,4435181,0.7832399999999999,0.04453,-0.8729100000000001,7.7175,-12.285,-7.98
1651,4435279,0.721508,0.031842,-0.8447280999999999,11.9,-12.985,-8.1725
1652,4435377,0.6825899999999999,0.022692,-0.8228901,15.1375,-12.04,-7.9975
1653,4435475,0.6763680000000001,-0.000122,-0.812642,18.2,-9.8175,-8.3825
1654,4435573,0.6694140000000001,-0.044407999999999996,-0.796782,21.0,-9.6425,-9.03
1655,4435671,0.674172,-0.07893401,-0.7788480999999999,22.8375,-11.1475,-9.59
1656,4435769,0.677588,-0.11248399999999999,-0.760792,22.9425,-12.8975,-10.185
1657,4435866,0.666974,-0.13969,-0.717726,21.0875,-15.505,-9.9575
1658,4435964,0.6408659999999999,-0.146034,-0.687592,19.04,-17.185,-8.4525
1659,4436062,0.62708,-0.147254,-0.683932,17.115,-17.9725,-6.1075
1660,4436160,0.634278,-0.137372,-0.685396,16.0825,-19.39,-3.535
1661,4436258,0.6329359999999999,-0.13639600000000002,-0.6764899999999999,15.295,-21.6125,-0.2625
1662,4436356,0.629154,-0.130296,-0.666242,13.93,-23.765,3.1675
1663,4436454,0.6430621,-0.126636,-0.652822,13.4925,-24.1675,5.53
1664,4436552,0.6537980999999999,-0.124806,-0.6420859999999999,12.8625,-23.1525,7.525
1665,4436649,0.667828,-0.128588,-0.62037,11.445,-22.505,9.1525
1666,4436747,0.668072,-0.11955999999999999,-0.605974,9.9225,-21.5075,9.59
1667,4436845,0.660996,-0.112972,-0.5978,8.5575,-20.2475,9.24
1668,4436943,0.660142,-0.10492,-0.59963,7.595,-19.0575,8.8375
1669,4437041,0.675148,-0.102724,-0.601338,6.965,-18.3225,8.05
1670,4437139,0.690154,-0.103334,-0.592432,5.985,-18.2525,7.595
1671,4437237,0.699914,-0.098576,-0.590236,3.36,-18.6725,7.3675
1672,4437335,0.711016,-0.108214,-0.5830380000000001,-0.105,-19.8625,7.1925
1673,4437433,0.7171161,-0.119804,-0.58011,-4.025,-21.7175,7.1925
1674,4437530,0.714554,-0.125904,-0.574254,-7.4725,-23.485,7.35
1675,4437628,0.71309,-0.125538,-0.549854,-10.2025,-23.4325,7.5075
1676,4437726,0.7088201,-0.12749000000000002,-0.5248441,-12.3375,-21.7175,7.98
1677,4437824,0.70577,-0.11943800000000002,-0.508984,-13.335,-19.075,8.925
1678,4437922,0.7056479999999999,-0.111996,-0.49105,-13.3875,-15.645,9.8175
1679,4438020,0.6943020000000001,-0.10492,-0.48214399999999996,-13.055,-11.165,10.8675
1680,4438118,0.676612,-0.090158,-0.4514,-11.48,-7.105,11.8475
1681,4438216,0.669048,-0.07076001,-0.42590200000000006,-10.9375,-2.7825,12.2675
1682,4438314,0.673196,-0.045506,-0.429928,-11.095,3.08,11.9875
1683,4438411,0.68625,-0.023058000000000002,-0.416142,-10.1675,7.665,11.1125
1684,4438509,0.6883239999999999,0.010736,-0.378078,-10.36,9.8525,9.8525
1685,4438607,0.6864941,0.063074,-0.348066,-13.23,12.075,7.805
1686,4438705,0.6802720999999999,0.07503,-0.322446,-16.9225,15.575,5.0225
1687,4438803,0.6695361,0.06270801,-0.310368,-20.9475,19.4075,1.3125
1688,4438901,0.647576,0.03843,-0.370758,-25.165,23.1175,-3.185
1689,4438999,0.6110981,-0.007686,-0.5511961,-26.635,25.4975,-9.0825
1690,4439097,0.622078,-0.087108,-0.901458,-20.23,28.6825,-15.715
